Item,Experiment,Release,Subject,Trial,List,WordRunLength,ExperimentRunID,RT,ACC,Session,node_idx,ortho,phono,original,replace,delete_insert,pos_l50,pos_m50,NumSylls,NumPhones,Duration,OrthUP,PhonND,OrthND,FreqSUBTLEX,FreqCOCA,FreqCOCAspok,FreqGoogle,PhonUP
allergy,MALD1_sR,MALD1,15292,727,words38,3,15292_38,667,TRUE,38,516,allergy,@lXJi,1,0,1,0,1,3,5,460,7,5,0,86,1229,132,6453834,6
along,MALD1_sR,MALD1,15292,167,words38,1,15292_38,784,TRUE,38,546,along,xlcG,2,0,2,2,0,2,4,485,6,4,9,9330,73012,12373,83450291,5
brink,MALD1_sR,MALD1,15292,710,words38,1,15292_38,753,TRUE,38,2202,brink,brIGk,8,5,3,5,3,1,5,385,6,23,16,127,1557,437,1485388,6
candle,MALD1_sR,MALD1,15292,312,words38,1,15292_38,654,TRUE,38,2530,candle,k@ndL,11,9,2,6,5,2,6,414,7,44,13,409,1978,202,10193814,7
chaser,MALD1_sR,MALD1,15292,642,words38,2,15292_38,960,TRUE,38,2974,chaser,CesX,5,4,1,1,4,2,4,454,7,17,9,66,209,48,1668181,5
cope,MALD1_sR,MALD1,15292,392,words38,2,15292_38,832,TRUE,38,3930,cope,kop,25,23,2,16,9,1,3,309,5,86,34,166,3545,507,5172385,4
crank,MALD1_sR,MALD1,15292,726,words38,2,15292_38,639,TRUE,38,4122,crank,kr@Gk,8,5,3,6,2,1,5,389,6,27,13,272,1104,114,2185694,6
craze,MALD1_sR,MALD1,15292,154,words38,1,15292_38,725,TRUE,38,4140,craze,krez,11,9,2,5,6,1,4,539,6,81,11,52,590,85,967820,5
dime,MALD1_sR,MALD1,15292,501,words38,1,15292_38,749,TRUE,38,4914,dime,dYm,20,19,1,12,8,1,3,387,5,74,24,615,1594,422,1910001,4
drift,MALD1_sR,MALD1,15292,433,words38,3,15292_38,747,TRUE,38,5279,drift,drIft,5,3,2,5,0,1,5,413,6,11,5,327,2435,178,3894170,6
dub,MALD1_sR,MALD1,15292,554,words38,1,15292_38,876,TRUE,38,5320,dub,d^b,22,20,2,12,10,1,3,280,4,64,34,55,234,18,4026648,4
duke,MALD1_sR,MALD1,15292,119,words38,7,15292_38,1277,TRUE,38,5339,duke,duk,16,14,2,6,10,1,3,312,5,88,25,1277,6455,1478,12251478,4
faint,MALD1_sR,MALD1,15292,728,words38,4,15292_38,650,TRUE,38,6176,faint,fent,7,5,2,5,2,1,4,412,6,26,9,473,3679,131,2567484,5
fleet,MALD1_sR,MALD1,15292,232,words38,1,15292_38,755,TRUE,38,6527,fleet,flit,16,13,3,7,9,1,4,503,6,36,11,540,3583,395,10364760,5
flicker,MALD1_sR,MALD1,15292,488,words38,2,15292_38,933,TRUE,38,6537,flicker,flIkX,5,3,2,2,3,2,5,472,8,18,8,35,805,34,814398,6
good,MALD1_sR,MALD1,15292,636,words38,3,15292_38,757,TRUE,38,7288,good,gUd,12,10,2,10,2,1,3,284,5,28,23,133117,236132,85425,365822878,4
grouse,MALD1_sR,MALD1,15292,80,words38,1,15292_38,730,TRUE,38,7462,grouse,grWs,6,6,0,0,6,1,4,418,7,32,12,23,427,4,805156,5
halt,MALD1_sR,MALD1,15292,762,words38,3,15292_38,727,TRUE,38,7602,halt,hclt,8,6,2,5,3,1,4,366,5,38,26,575,2938,431,2950802,5
hub,MALD1_sR,MALD1,15292,792,words38,1,15292_38,764,TRUE,38,8085,hub,h^b,19,19,0,10,9,1,3,280,4,48,25,156,1869,147,11194938,4
kitten,MALD1_sR,MALD1,15292,786,words38,2,15292_38,753,TRUE,38,9519,kitten,kItN,7,6,1,5,2,2,5,359,7,52,6,241,574,60,3052310,6
lancer,MALD1_sR,MALD1,15292,33,words38,1,15292_38,927,TRUE,38,9630,lancer,l@nsX,3,1,2,2,1,2,5,668,7,19,14,22,89,14,1096622,6
lipstick,MALD1_sR,MALD1,15292,187,words38,1,15292_38,901,TRUE,38,9982,lipstick,lIpstIk,1,1,0,1,0,2,7,539,9,2,2,449,1643,161,2166486,8
log,MALD1_sR,MALD1,15292,193,words38,2,15292_38,732,TRUE,38,10083,log,lcg,13,12,1,8,5,1,3,401,4,46,42,610,4672,509,111172980,4
mat,MALD1_sR,MALD1,15292,507,words38,2,15292_38,782,TRUE,38,10532,mat,m@t,30,27,3,21,9,1,3,364,4,94,61,178,1998,137,9947887,4
may,MALD1_sR,MALD1,15292,425,words38,2,15292_38,585,TRUE,38,10579,may,me,32,23,9,15,17,1,2,385,4,161,60,26080,232650,41170,827841285,3
minute,MALD1_sR,MALD1,15292,49,words38,2,15292_38,993,TRUE,38,10889,minute,mIn|t,4,3,1,3,1,2,5,494,7,4,2,19252,26841,8141,41062743,4
mix,MALD1_sR,MALD1,15292,144,words38,1,15292_38,924,TRUE,38,10979,mix,mIks,7,5,2,5,2,1,4,446,4,74,26,834,12485,1451,32437743,5
numb,MALD1_sR,MALD1,15292,96,words38,1,15292_38,762,TRUE,38,11738,numb,n^m,17,17,0,12,5,1,3,371,5,60,3,249,1189,180,1255499,4
of,MALD1_sR,MALD1,15292,760,words38,1,15292_38,722,TRUE,38,11874,of,xv,4,1,3,1,3,1,2,370,3,32,32,590439,6670388,1244477,13151942776,3
padding,MALD1_sR,MALD1,15292,295,words38,3,15292_38,874,TRUE,38,12253,padding,p@dIG,4,4,0,4,0,2,5,385,8,11,6,49,561,30,2890936,6
paid,MALD1_sR,MALD1,15292,369,words38,1,15292_38,839,TRUE,38,12266,paid,ped,22,18,4,13,9,1,3,529,4,82,19,4369,25590,5940,60295896,4
poach,MALD1_sR,MALD1,15292,308,words38,2,15292_38,976,TRUE,38,13196,poach,poC,15,14,1,8,7,1,3,439,6,41,9,17,117,11,75120,4
private,MALD1_sR,MALD1,15292,178,words38,2,15292_38,1115,TRUE,38,13664,private,prYvxt,1,1,0,1,0,2,6,422,8,3,2,3874,41819,7720,187887808,7
quickie,MALD1_sR,MALD1,15292,55,words38,2,15292_38,906,TRUE,38,14096,quickie,kwIki,2,1,1,0,2,2,5,539,6,11,0,53,188,18,664065,5
renew,MALD1_sR,MALD1,15292,242,words38,2,15292_38,1120,TRUE,38,14575,renew,rInu,1,1,0,0,1,2,4,420,6,13,3,111,1121,183,6563804,5
rub,MALD1_sR,MALD1,15292,121,words38,1,15292_38,825,TRUE,38,14963,rub,r^b,23,18,5,14,9,1,3,294,4,64,32,788,2697,348,3437527,4
sleeve,MALD1_sR,MALD1,15292,399,words38,1,15292_38,941,TRUE,38,15800,sleeve,sliv,7,6,1,2,5,1,4,657,7,20,2,286,2092,158,11445499,5
snap,MALD1_sR,MALD1,15292,557,words38,1,15292_38,773,TRUE,38,15885,snap,sn@p,9,7,2,3,6,1,4,375,5,20,12,887,3412,266,7982587,5
sob,MALD1_sR,MALD1,15292,634,words38,1,15292_38,944,TRUE,38,15920,sob,sab,18,16,2,13,5,1,3,549,4,65,32,77,513,54,800059,4
sport,MALD1_sR,MALD1,15292,676,words38,1,15292_38,715,TRUE,38,16175,sport,sport,7,3,4,6,1,1,5,502,6,20,11,1015,16323,1184,62692186,6
stump,MALD1_sR,MALD1,15292,626,words38,2,15292_38,897,TRUE,38,16529,stump,st^mp,2,2,0,2,0,1,5,485,6,14,13,125,1280,226,1357079,6
stunt,MALD1_sR,MALD1,15292,87,words38,1,15292_38,873,TRUE,38,16533,stunt,st^nt,2,1,1,1,1,1,5,462,6,14,11,469,931,293,1754828,6
supply,MALD1_sR,MALD1,15292,573,words38,2,15292_38,896,TRUE,38,16728,supply,sxplY,1,0,1,1,0,2,5,669,7,6,1,952,13683,1931,73221816,6
swat,MALD1_sR,MALD1,15292,254,words38,3,15292_38,1044,TRUE,38,16799,swat,swat,16,13,3,7,9,1,4,526,5,30,17,196,882,208,1476384,5
syringe,MALD1_sR,MALD1,15292,323,words38,2,15292_38,1021,TRUE,38,16889,syringe,sXInJ,1,0,1,1,0,2,5,694,8,2,2,99,593,69,1086828,6
trade,MALD1_sR,MALD1,15292,278,words38,1,15292_38,711,TRUE,38,17567,trade,tred,13,9,4,4,9,1,4,460,6,30,8,1795,33288,6150,110088441,5
trickle,MALD1_sR,MALD1,15292,202,words38,2,15292_38,773,TRUE,38,17706,trickle,trIkL,7,5,2,5,2,2,6,449,8,15,6,16,1185,244,716225,7
varied,MALD1_sR,MALD1,15292,215,words38,6,15292_38,1139,TRUE,38,18341,varied,vErid,3,2,1,1,2,2,5,511,6,15,1,41,4422,131,7013799,5
vessel,MALD1_sR,MALD1,15292,115,words38,3,15292_38,976,TRUE,38,18481,vessel,vEsL,6,5,1,4,2,2,5,502,7,24,15,477,3493,310,8794883,6
war,MALD1_sR,MALD1,15292,346,words38,1,15292_38,650,TRUE,38,18791,war,wor,29,20,9,19,10,1,3,379,4,121,46,8912,104024,32913,126526108,4
wide,MALD1_sR,MALD1,15292,303,words38,2,15292_38,936,TRUE,38,19021,wide,wYd,26,23,3,15,11,1,3,298,5,100,27,1214,28320,1972,87666217,4
wood,MALD1_sR,MALD1,15292,379,words38,2,15292_38,745,TRUE,38,19142,wood,wUd,15,13,2,11,4,1,3,289,5,30,17,1377,17037,1029,51133768,4
world,MALD1_sR,MALD1,15292,175,words38,1,15292_38,1774,TRUE,38,19168,world,wRld,5,4,1,4,1,1,4,460,6,35,5,23216,193305,43143,431966449,5
abode,MALD1_sR,MALD1,15301,304,words9,1,15301_76,725,TRUE,76,52,abode,xbod,4,2,2,1,3,2,4,509,4,10,4,33,213,12,1250165,3
annoy,MALD1_sR,MALD1,15301,206,words9,4,15301_76,725,TRUE,76,758,annoy,xnO,2,2,0,1,1,2,3,429,6,13,4,128,311,58,1497815,4
assert,MALD1_sR,MALD1,15301,264,words9,3,15301_76,723,TRUE,76,1148,assert,xsRt,3,3,0,2,1,2,4,475,7,7,5,43,1782,165,3288118,5
beam,MALD1_sR,MALD1,15301,593,words9,1,15301_76,804,TRUE,76,1636,beam,bim,16,14,2,9,7,1,3,443,5,94,25,445,3469,153,11828265,4
blur,MALD1_sR,MALD1,15301,602,words9,1,15301_76,813,TRUE,76,1973,blur,blR,6,3,3,2,4,1,3,399,5,106,11,109,1469,111,1918107,4
bold,MALD1_sR,MALD1,15301,636,words9,8,15301_76,679,TRUE,76,2009,bold,bold,18,14,4,11,7,1,4,499,5,70,27,385,4302,699,18244843,5
bush,MALD1_sR,MALD1,15301,140,words9,1,15301_76,1195,TRUE,76,2362,bush,bUS,6,5,1,3,3,1,3,317,5,27,30,720,59007,35233,71300864,4
circuit,MALD1_sR,MALD1,15301,135,words9,2,15301_76,766,TRUE,76,3182,circuit,sRk|t,3,2,1,1,2,2,5,550,8,11,1,340,5681,849,26918881,6
circus,MALD1_sR,MALD1,15301,380,words9,1,15301_76,768,TRUE,76,3205,circus,sRk|s,1,1,0,0,1,2,5,631,7,9,1,870,2220,510,5381242,6
clan,MALD1_sR,MALD1,15301,197,words9,1,15301_76,786,TRUE,76,3234,clan,kl@n,12,11,1,3,9,1,4,480,5,49,27,209,2155,130,6798554,5
cloth,MALD1_sR,MALD1,15301,397,words9,2,15301_76,815,TRUE,76,3319,cloth,klcT,3,2,1,1,2,1,4,459,6,19,8,311,5095,171,9764604,5
coroner,MALD1_sR,MALD1,15301,473,words9,1,15301_76,748,TRUE,76,3977,coroner,kcrxnX,3,3,0,0,3,3,6,396,8,15,8,458,803,319,861881,7
crept,MALD1_sR,MALD1,15301,328,words9,1,15301_76,847,TRUE,76,4171,crept,krEpt,3,2,1,2,1,1,5,345,5,11,4,58,1268,62,590578,5
crib,MALD1_sR,MALD1,15301,110,words9,1,15301_76,739,TRUE,76,4183,crib,krIb,3,2,1,1,2,1,4,262,5,34,9,316,965,118,3849386,5
dawn,MALD1_sR,MALD1,15301,676,words9,2,15301_76,712,TRUE,76,4465,dawn,dcn,19,16,3,16,3,1,3,345,5,101,20,1301,6154,737,12224273,4
diary,MALD1_sR,MALD1,15301,378,words9,1,15301_76,1088,TRUE,76,4860,diary,dYri,6,4,2,5,1,3,4,485,5,10,4,458,2632,356,14926124,5
dodge,MALD1_sR,MALD1,15301,187,words9,2,15301_76,1348,TRUE,76,5143,dodge,daJ,8,8,0,3,5,1,3,392,6,40,11,396,2356,287,14768509,4
drug,MALD1_sR,MALD1,15301,452,words9,1,15301_76,894,TRUE,76,5309,drug,dr^g,8,6,2,3,5,1,4,347,5,17,9,2306,37213,8980,79428645,5
fish,MALD1_sR,MALD1,15301,657,words9,2,15301_76,729,TRUE,76,6456,fish,fIS,13,9,4,4,9,1,3,407,5,50,18,4258,28281,2194,52768568,4
flag,MALD1_sR,MALD1,15301,391,words9,5,15301_76,911,TRUE,76,6482,flag,fl@g,8,6,2,3,5,1,4,589,5,30,17,892,6243,1599,33053840,5
frost,MALD1_sR,MALD1,15301,735,words9,1,15301_76,741,TRUE,76,6833,frost,frcst,1,0,1,0,1,1,5,458,6,9,11,245,2513,269,5943971,6
harm,MALD1_sR,MALD1,15301,687,words9,1,15301_76,775,TRUE,76,7661,harm,harm,9,8,1,3,6,1,4,440,5,40,30,1621,7124,1524,10026586,5
hurl,MALD1_sR,MALD1,15301,410,words9,3,15301_76,878,TRUE,76,8138,hurl,hRl,22,19,3,15,7,1,3,476,5,102,14,69,290,24,334757,4
incest,MALD1_sR,MALD1,15301,468,words9,4,15301_76,1056,TRUE,76,8527,incest,InsEst,7,5,2,3,4,2,6,551,7,8,4,44,686,239,51394714,6
jet,MALD1_sR,MALD1,15301,732,words9,1,15301_76,642,TRUE,76,9321,jet,JEt,20,17,3,14,6,1,3,350,4,74,30,721,5757,1077,16680047,4
knock,MALD1_sR,MALD1,15301,315,words9,2,15301_76,574,TRUE,76,9542,knock,nak,19,19,0,15,4,1,3,372,6,102,8,3299,4486,902,5196936,4
longer,MALD1_sR,MALD1,15301,612,words9,3,15301_76,600,TRUE,76,10100,longer,lcGgX,2,2,0,2,0,2,5,434,7,2,14,5046,42136,6803,54063969,6
nude,MALD1_sR,MALD1,15301,309,words9,1,15301_76,684,TRUE,76,11726,nude,nud,15,13,2,8,7,1,3,344,5,56,16,301,1643,322,96757551,4
offer,MALD1_sR,MALD1,15301,598,words9,2,15301_76,716,TRUE,76,11880,offer,cfX,6,4,2,3,3,2,3,472,6,32,8,3810,29215,3692,126228968,4
ooze,MALD1_sR,MALD1,15301,709,words9,1,15301_76,908,TRUE,76,11941,ooze,uz,10,3,7,9,1,1,2,418,5,111,5,27,289,15,656481,3
owl,MALD1_sR,MALD1,15301,656,words9,1,15301_76,714,TRUE,76,12218,owl,Wl,15,10,5,13,2,1,2,343,4,61,14,286,1467,134,5013390,3
pal,MALD1_sR,MALD1,15301,701,words9,1,15301_76,866,TRUE,76,12275,pal,p@l,20,19,1,10,10,1,3,469,4,82,47,2937,1803,312,9995683,4
pap,MALD1_sR,MALD1,15301,476,words9,4,15301_76,2259,TRUE,76,12360,pap,p@p,28,28,0,19,9,1,3,279,4,73,43,66,646,57,1954530,4
parrot,MALD1_sR,MALD1,15301,509,words9,3,15301_76,1018,TRUE,76,12456,parrot,p@rxt,6,4,2,4,2,2,5,359,7,24,6,167,752,95,2682859,6
pit,MALD1_sR,MALD1,15301,587,words9,3,15301_76,697,TRUE,76,13054,pit,pIt,33,30,3,23,10,1,3,243,4,87,42,674,3729,392,8536397,4
plight,MALD1_sR,MALD1,15301,635,words9,7,15301_76,1800,TRUE,76,13156,plight,plYt,11,8,3,6,5,1,4,370,4,25,5,63,1579,278,1330993,4
quarry,MALD1_sR,MALD1,15301,394,words9,1,15301_76,831,TRUE,76,14070,quarry,kwcri,2,2,0,1,1,2,5,453,7,15,2,78,767,32,1960848,6
resound,MALD1_sR,MALD1,15301,433,words9,3,15301_76,1402,TRUE,76,14677,resound,rIzWnd,2,2,0,1,1,2,6,624,8,4,2,9,66,9,121342,4
rightful,MALD1_sR,MALD1,15301,622,words9,4,15301_76,673,TRUE,76,14827,rightful,rYtfL,1,0,1,0,1,2,6,569,9,5,1,119,531,59,712223,7
salve,MALD1_sR,MALD1,15301,226,words9,2,15301_76,1244,TRUE,76,15104,salve,s@v,12,12,0,5,7,1,3,513,6,37,14,29,207,14,423303,4
scurvy,MALD1_sR,MALD1,15301,157,words9,1,15301_76,670,TRUE,76,15313,scurvy,skRvi,1,0,1,0,1,2,5,642,5,2,2,55,109,3,192339,5
select,MALD1_sR,MALD1,15301,262,words9,1,15301_76,795,TRUE,76,15378,select,sxlEkt,2,1,1,2,0,2,6,556,7,4,2,180,5719,539,168688154,7
sewer,MALD1_sR,MALD1,15301,418,words9,1,15301_76,694,TRUE,76,15497,sewer,suX,9,6,3,1,8,2,3,426,6,68,16,240,1088,130,5008805,4
six,MALD1_sR,MALD1,15301,48,words9,1,15301_76,860,TRUE,76,15738,six,sIks,8,7,1,5,3,1,4,472,4,74,30,10176,68004,14427,71373283,5
sold,MALD1_sR,MALD1,15301,62,words9,1,15301_76,725,TRUE,76,15953,sold,sold,15,12,3,10,5,1,4,579,5,53,25,2655,18763,3095,42980371,5
spider,MALD1_sR,MALD1,15301,371,words9,2,15301_76,818,TRUE,76,16112,spider,spYdX,1,0,1,1,0,2,5,552,7,19,11,515,2115,304,9442640,6
taste,MALD1_sR,MALD1,15301,440,words9,2,15301_76,589,TRUE,76,17006,taste,test,9,8,1,7,2,1,4,375,6,34,14,2617,14001,1677,17312480,5
thou,MALD1_sR,MALD1,15301,431,words9,1,15301_76,911,TRUE,76,17285,thou,DW,14,14,0,9,5,1,2,439,5,65,10,1144,1388,169,11669293,3
three,MALD1_sR,MALD1,15301,555,words9,2,15301_76,778,TRUE,76,17293,three,Tri,9,8,1,7,2,1,3,454,6,47,7,27654,189312,36451,223420478,4
vocal,MALD1_sR,MALD1,15301,707,words9,2,15301_76,654,TRUE,76,18660,vocal,vokL,2,2,0,2,0,2,5,482,6,11,5,151,3362,446,9083681,6
vow,MALD1_sR,MALD1,15301,200,words9,1,15301_76,1261,TRUE,76,18710,vow,vW,14,11,3,10,4,1,2,348,4,75,26,276,886,172,1127734,3
wait,MALD1_sR,MALD1,15301,285,words9,1,15301_76,666,TRUE,76,18762,wait,wet,27,22,5,18,9,1,3,390,5,91,32,42343,30118,11036,39005783,4
windy,MALD1_sR,MALD1,15301,310,words9,2,15301_76,766,TRUE,76,19072,windy,wIndi,3,2,1,1,2,2,5,397,5,24,14,134,1090,157,2163179,5
wrath,MALD1_sR,MALD1,15301,610,words9,1,15301_76,1010,TRUE,76,19192,wrath,r@T,17,17,0,7,10,1,3,472,6,54,3,199,923,123,2486921,4
yield,MALD1_sR,MALD1,15301,358,words9,2,15301_76,983,TRUE,76,19267,yield,yild,4,4,0,4,0,1,4,448,6,20,4,206,5639,427,15022494,5
across,MALD1_sR,MALD1,15302,371,words63,1,15302_63,846,TRUE,63,198,across,xkrcs,2,0,2,2,0,2,5,606,5,8,2,4801,74527,11899,76600131,4
art,MALD1_sR,MALD1,15302,32,words63,1,15302_63,610,TRUE,63,1072,art,art,13,4,9,8,5,1,3,324,4,67,43,3611,55350,4211,214704717,4
at,MALD1_sR,MALD1,15302,607,words63,1,15302_63,578,TRUE,63,1203,at,@t,31,12,19,23,8,1,2,320,3,85,73,164072,1238967,247370,2272272772,3
atone,MALD1_sR,MALD1,15302,352,words63,1,15302_63,787,TRUE,63,1228,atone,xton,5,4,1,3,2,2,4,492,6,9,7,43,148,12,154979,5
burned,MALD1_sR,MALD1,15302,48,words63,1,15302_63,854,TRUE,63,2350,burned,bRnd,9,7,2,6,3,1,4,437,6,48,8,1448,7095,1174,4993504,5
candy,MALD1_sR,MALD1,15302,77,words63,2,15302_63,745,TRUE,63,2533,candy,k@ndi,10,6,4,3,7,2,5,494,6,43,23,1825,5139,929,13780648,6
cellar,MALD1_sR,MALD1,15302,678,words63,2,15302_63,593,TRUE,63,2823,cellar,sElX,10,6,4,3,7,2,4,422,7,113,6,478,1152,44,3002258,5
cinch,MALD1_sR,MALD1,15302,502,words63,1,15302_63,1047,TRUE,63,3169,cinch,sInC,8,6,2,5,3,1,4,529,6,26,13,182,354,31,427775,5
drink,MALD1_sR,MALD1,15302,341,words63,1,15302_63,625,TRUE,63,5281,drink,drIGk,6,5,1,6,0,1,5,441,6,13,9,12617,15356,2200,29256735,6
fateful,MALD1_sR,MALD1,15302,231,words63,4,15302_63,1049,TRUE,63,6259,fateful,fetfL,1,0,1,0,1,2,6,514,5,4,1,51,626,134,447598,4
fragile,MALD1_sR,MALD1,15302,436,words63,3,15302_63,659,TRUE,63,6755,fragile,fr@JL,1,1,0,0,1,2,6,498,7,2,1,262,3269,440,2852127,4
fully,MALD1_sR,MALD1,15302,650,words63,1,15302_63,775,TRUE,63,6861,fully,fUli,9,7,2,8,1,2,4,433,5,26,10,880,16324,2383,48617064,4
gem,MALD1_sR,MALD1,15302,81,words63,1,15302_63,697,TRUE,63,7055,gem,JEm,9,8,1,6,3,1,3,361,4,61,20,126,823,63,6156692,4
graphite,MALD1_sR,MALD1,15302,38,words63,1,15302_63,712,TRUE,63,7366,graphite,gr@fYt,1,0,1,0,1,2,6,492,7,2,0,21,883,20,2667183,5
hurt,MALD1_sR,MALD1,15302,506,words63,2,15302_63,798,TRUE,63,8142,hurt,hRt,23,21,2,15,8,1,3,443,5,101,23,12564,18791,5882,12940340,4
inside,MALD1_sR,MALD1,15302,279,words63,1,15302_63,1127,TRUE,63,8896,inside,InsYd,4,3,1,0,4,2,5,537,7,8,3,10775,50862,10420,74036500,6
karma,MALD1_sR,MALD1,15302,554,words63,2,15302_63,587,TRUE,63,9449,karma,karmx,2,0,2,0,2,2,5,361,6,25,10,176,419,64,6863875,6
lessen,MALD1_sR,MALD1,15302,486,words63,1,15302_63,878,TRUE,63,9833,lessen,lEsN,6,5,1,2,4,2,5,580,7,44,11,30,839,86,1087324,6
lie,MALD1_sR,MALD1,15302,145,words63,1,15302_63,562,TRUE,63,9896,lie,lY,36,21,15,21,15,1,2,300,4,156,58,6133,12906,2815,13539916,3
limbo,MALD1_sR,MALD1,15302,294,words63,1,15302_63,865,TRUE,63,9933,limbo,lImbo,1,1,0,0,1,2,5,429,5,8,5,121,599,122,852614,5
magnet,MALD1_sR,MALD1,15302,626,words63,4,15302_63,827,TRUE,63,10266,magnet,m@gn|t,2,1,1,0,2,2,6,522,7,11,5,140,1557,175,6698803,7
market,MALD1_sR,MALD1,15302,223,words63,1,15302_63,848,TRUE,63,10463,market,mark|t,1,0,1,0,1,2,6,450,7,27,14,1848,56087,10065,162393273,7
muck,MALD1_sR,MALD1,15302,246,words63,6,15302_63,715,TRUE,63,11222,muck,m^k,25,22,3,14,11,1,3,460,5,106,25,97,591,52,1305552,4
myth,MALD1_sR,MALD1,15302,349,words63,1,15302_63,829,TRUE,63,11346,myth,mIT,15,14,1,8,7,1,3,361,5,53,7,352,4390,471,6054397,4
noisy,MALD1_sR,MALD1,15302,134,words63,1,15302_63,621,TRUE,63,11612,noisy,nOzi,3,2,1,2,1,2,4,463,5,7,3,257,1692,146,3722908,5
normal,MALD1_sR,MALD1,15302,301,words63,2,15302_63,674,TRUE,63,11662,normal,normL,3,1,2,1,2,2,6,418,7,12,3,3589,20598,4401,56446291,7
pasty,MALD1_sR,MALD1,15302,601,words63,2,15302_63,675,TRUE,63,12524,pasty,p@sti,8,5,3,4,4,2,5,481,5,11,13,31,187,13,234413,5
peg,MALD1_sR,MALD1,15302,538,words63,2,15302_63,624,TRUE,63,12627,peg,pEg,10,10,0,5,5,1,3,307,4,53,23,1857,907,77,3808952,4
point,MALD1_sR,MALD1,15302,457,words63,1,15302_63,599,TRUE,63,13213,point,pOnt,8,6,2,7,1,1,4,382,6,20,9,12063,106134,36964,175543899,5
prairie,MALD1_sR,MALD1,15302,124,words63,1,15302_63,623,TRUE,63,13443,prairie,prEri,1,0,1,0,1,2,5,470,8,12,1,143,2809,190,8844038,6
quaint,MALD1_sR,MALD1,15302,354,words63,3,15302_63,643,TRUE,63,14056,quaint,kwent,2,0,2,1,1,1,5,446,7,4,3,111,840,83,1102986,6
quite,MALD1_sR,MALD1,15302,623,words63,1,15302_63,536,TRUE,63,14117,quite,kwYt,10,7,3,3,7,1,4,332,5,20,11,10332,43248,14429,58778450,4
risk,MALD1_sR,MALD1,15302,762,words63,1,15302_63,595,TRUE,63,14857,risk,rIsk,9,5,4,5,4,1,4,386,5,49,26,2501,43624,6650,91491902,5
sermon,MALD1_sR,MALD1,15302,284,words63,1,15302_63,814,TRUE,63,15467,sermon,sRmxn,7,6,1,7,0,2,5,442,7,60,6,139,1371,140,2693657,6
shrapnel,MALD1_sR,MALD1,15302,519,words63,2,15302_63,839,TRUE,63,15616,shrapnel,Sr@pnL,1,1,0,1,0,2,7,582,5,1,0,113,440,105,335328,4
shrub,MALD1_sR,MALD1,15302,701,words63,1,15302_63,629,TRUE,63,15634,shrub,Sr^b,4,3,1,3,1,1,4,467,6,12,6,14,535,23,1458217,5
slang,MALD1_sR,MALD1,15302,385,words63,5,15302_63,971,TRUE,63,15778,slang,sl@G,11,10,1,2,9,1,4,534,5,20,13,71,572,85,1819478,5
sloppy,MALD1_sR,MALD1,15302,530,words63,4,15302_63,1079,TRUE,63,15830,sloppy,slapi,1,0,1,0,1,2,5,521,6,7,2,300,1044,155,1322519,6
smear,MALD1_sR,MALD1,15302,741,words63,2,15302_63,723,TRUE,63,15853,smear,smIr,8,6,2,7,1,1,4,480,6,32,9,111,881,232,1289528,5
smoke,MALD1_sR,MALD1,15302,558,words63,1,15302_63,761,TRUE,63,15869,smoke,smok,7,6,1,3,4,1,4,622,6,19,11,3337,12251,2198,16571457,5
smug,MALD1_sR,MALD1,15302,21,words63,2,15302_63,706,TRUE,63,15876,smug,sm^g,8,6,2,3,5,1,4,412,5,9,5,122,637,49,463973,5
soda,MALD1_sR,MALD1,15302,431,words63,1,15302_63,803,TRUE,63,15937,soda,sodx,2,2,0,1,1,2,4,459,5,37,24,1012,2907,249,3957574,5
sop,MALD1_sR,MALD1,15302,466,words63,1,15302_63,738,TRUE,63,16001,sop,sap,23,20,3,18,5,1,3,423,4,84,45,14,206,13,1045740,4
spend,MALD1_sR,MALD1,15302,407,words63,1,15302_63,749,TRUE,63,16098,spend,spEnd,5,3,2,3,2,1,5,668,6,18,9,4757,24466,6789,26713780,6
spoiled,MALD1_sR,MALD1,15302,765,words63,2,15302_63,712,TRUE,63,16157,spoiled,spOld,3,2,1,1,2,1,5,556,7,7,2,432,1213,174,1403276,5
spoke,MALD1_sR,MALD1,15302,667,words63,2,15302_63,636,TRUE,63,16159,spoke,spok,9,7,2,4,5,1,4,559,6,20,10,1970,19237,5232,11577917,5
spoon,MALD1_sR,MALD1,15302,681,words63,5,15302_63,693,TRUE,63,16171,spoon,spun,11,10,1,2,9,1,4,655,6,21,10,388,3990,198,4000675,5
spore,MALD1_sR,MALD1,15302,153,words63,3,15302_63,927,TRUE,63,16174,spore,spor,13,10,3,6,7,1,4,555,6,40,14,7,172,12,589962,5
swept,MALD1_sR,MALD1,15302,40,words63,3,15302_63,766,TRUE,63,16815,swept,swEpt,3,1,2,2,1,1,5,471,4,11,7,243,4663,597,2612332,4
theorem,MALD1_sR,MALD1,15302,523,words63,1,15302_63,827,TRUE,63,17218,theorem,TIrM,2,2,0,1,1,2,5,430,8,3,1,17,479,21,8569908,4
this,MALD1_sR,MALD1,15302,7,words63,1,15302_63,605,TRUE,63,17270,this,DIs,4,4,0,4,0,1,3,455,5,25,11,406915,1235350,478061,3228499306,4
thug,MALD1_sR,MALD1,15302,572,words63,2,15302_63,730,TRUE,63,17320,thug,T^g,12,12,0,10,2,1,3,378,5,27,11,178,459,102,1607469,4
tinker,MALD1_sR,MALD1,15302,129,words63,1,15302_63,764,TRUE,63,17384,tinker,tIGkX,4,3,1,1,3,2,5,549,7,15,15,113,576,71,983290,6
tissue,MALD1_sR,MALD1,15302,593,words63,1,15302_63,601,TRUE,63,17404,tissue,tISu,2,1,1,2,0,2,5,434,7,1,3,547,6051,660,15448920,6
tumble,MALD1_sR,MALD1,15302,555,words63,3,15302_63,701,TRUE,63,17824,tumble,t^mbL,8,5,3,7,1,2,6,411,7,15,13,79,1034,160,1925795,7
vague,MALD1_sR,MALD1,15302,353,words63,2,15302_63,770,TRUE,63,18277,vague,veg,4,4,0,1,3,1,3,426,6,23,10,231,2876,374,2784135,4
vet,MALD1_sR,MALD1,15302,529,words63,3,15302_63,753,TRUE,63,18492,vet,vEt,16,14,2,13,3,1,3,415,4,62,30,296,1319,214,4985571,4
what,MALD1_sR,MALD1,15302,106,words63,1,15302_63,692,TRUE,63,18916,what,hwat,7,5,2,3,4,1,3,321,5,61,19,501965,755309,320102,812428199,4
whiff,MALD1_sR,MALD1,15302,288,words63,5,15302_63,876,TRUE,63,18950,whiff,hwIf,7,7,0,0,7,1,3,338,6,67,2,127,665,42,249083,4
zephyr,MALD1_sR,MALD1,15302,76,words63,1,15302_63,718,TRUE,63,19304,zephyr,zEfX,1,1,0,1,0,2,4,520,7,18,1,50,127,7,1334891,5
acre,MALD1_sR,MALD1,15308,42,words22,3,15308_22,793,TRUE,22,186,acre,ekX,3,1,2,2,1,2,3,558,5,55,17,93,4231,260,6661571,4
bag,MALD1_sR,MALD1,15308,656,words22,2,15308_22,787,TRUE,22,1434,bag,b@g,28,26,2,17,11,1,3,439,4,74,39,4796,17692,1987,40683161,4
blush,MALD1_sR,MALD1,15308,400,words22,4,15308_22,674,TRUE,22,1976,blush,bl^S,7,6,1,5,2,1,4,409,6,14,10,136,1104,103,1722003,5
brittle,MALD1_sR,MALD1,15308,690,words22,4,15308_22,556,TRUE,22,2213,brittle,brItL,3,3,0,1,2,2,6,362,8,19,5,71,907,36,880926,6
cheek,MALD1_sR,MALD1,15308,751,words22,1,15308_22,643,TRUE,22,3005,cheek,Cik,21,19,2,16,5,1,3,341,6,76,10,365,4412,267,2681244,4
chuck,MALD1_sR,MALD1,15308,619,words22,4,15308_22,642,TRUE,22,3149,chuck,C^k,20,17,3,14,6,1,3,381,6,55,9,1096,4081,1506,9576652,4
cider,MALD1_sR,MALD1,15308,564,words22,1,15308_22,875,TRUE,22,3166,cider,sYdX,8,5,3,5,3,2,4,518,4,69,8,97,1206,64,1743446,5
clam,MALD1_sR,MALD1,15308,264,words22,2,15308_22,924,TRUE,22,3229,clam,kl@m,16,11,5,4,12,1,4,569,5,58,24,200,512,62,1619241,5
clay,MALD1_sR,MALD1,15308,169,words22,2,15308_22,893,TRUE,22,3265,clay,kle,10,7,3,6,4,1,3,318,5,55,19,612,5733,427,13359113,4
clog,MALD1_sR,MALD1,15308,680,words22,1,15308_22,763,TRUE,22,3310,clog,klag,6,5,1,2,4,1,4,469,5,24,13,41,336,43,791336,5
crate,MALD1_sR,MALD1,15308,201,words22,1,15308_22,1235,TRUE,22,4130,crate,kret,16,13,3,9,7,1,4,419,6,46,19,209,750,47,2337346,5
cruiser,MALD1_sR,MALD1,15308,508,words22,1,15308_22,891,TRUE,22,4249,cruiser,kruzX,1,0,1,0,1,2,5,414,8,18,5,162,1204,65,3735652,6
dead,MALD1_sR,MALD1,15308,689,words22,3,15308_22,712,TRUE,22,4473,dead,dEd,24,22,2,15,9,1,3,359,5,74,22,22898,38019,7974,48400230,4
decay,MALD1_sR,MALD1,15308,258,words22,3,15308_22,668,TRUE,22,4513,decay,dxke,1,1,0,0,1,2,4,479,6,19,7,105,1582,103,4956909,5
dowdy,MALD1_sR,MALD1,15308,251,words22,2,15308_22,860,TRUE,22,5219,dowdy,dWdi,5,5,0,2,3,2,4,388,5,32,12,12,154,13,161797,4
dozen,MALD1_sR,MALD1,15308,795,words22,1,15308_22,734,TRUE,22,5233,dozen,d^zN,2,1,1,1,1,2,5,480,6,11,10,1231,14001,1913,9776227,6
drag,MALD1_sR,MALD1,15308,605,words22,3,15308_22,590,TRUE,22,5239,drag,dr@g,7,6,1,3,4,1,4,417,5,21,14,1349,4424,579,9151134,5
enough,MALD1_sR,MALD1,15308,224,words22,3,15308_22,700,TRUE,22,5696,enough,In^f,1,1,0,1,0,2,4,496,7,6,1,25568,94927,19713,83595746,5
fairy,MALD1_sR,MALD1,15308,398,words22,2,15308_22,916,TRUE,22,6178,fairy,f@ri,14,11,3,11,3,2,4,469,6,131,10,851,2165,351,6437994,5
fit,MALD1_sR,MALD1,15308,438,words22,1,15308_22,719,TRUE,22,6465,fit,fIt,28,25,3,20,8,1,3,235,4,79,32,2937,19475,2436,42360098,4
gauze,MALD1_sR,MALD1,15308,506,words22,3,15308_22,831,TRUE,22,7036,gauze,gcz,11,11,0,5,6,1,3,472,4,71,3,73,446,24,556178,3
gill,MALD1_sR,MALD1,15308,41,words22,2,15308_22,738,TRUE,22,7161,gill,gIl,28,24,4,23,5,1,3,275,5,99,34,87,1272,78,3673631,4
glide,MALD1_sR,MALD1,15308,211,words22,2,15308_22,659,TRUE,22,7210,glide,glYd,5,4,1,3,2,1,4,396,6,22,7,120,812,64,1732328,5
gloom,MALD1_sR,MALD1,15308,448,words22,1,15308_22,870,TRUE,22,7224,gloom,glum,9,7,2,6,3,1,4,373,6,21,6,59,1069,105,878238,5
gray,MALD1_sR,MALD1,15308,399,words22,3,15308_22,755,TRUE,22,7388,gray,gre,18,8,10,7,11,1,3,449,5,61,31,1077,16298,1305,21425871,4
gristle,MALD1_sR,MALD1,15308,668,words22,2,15308_22,837,TRUE,22,7430,gristle,grIsL,3,3,0,1,2,2,6,413,6,11,1,11,59,0,93861,6
haddock,MALD1_sR,MALD1,15308,537,words22,1,15308_22,1132,TRUE,22,7565,haddock,h@dxk,4,4,0,4,0,2,5,427,6,29,7,11,139,11,438655,5
hardy,MALD1_sR,MALD1,15308,25,words22,1,15308_22,823,TRUE,22,7656,hardy,hardi,5,3,2,1,4,2,5,399,6,24,11,188,2674,240,4748962,6
hawk,MALD1_sR,MALD1,15308,687,words22,1,15308_22,739,TRUE,22,7705,hawk,hck,18,14,4,13,5,1,3,382,5,89,14,650,2431,319,6531503,4
hay,MALD1_sR,MALD1,15308,773,words22,1,15308_22,780,TRUE,22,7709,hay,he,26,22,4,15,11,1,2,273,4,158,47,325,2166,136,5692533,3
inch,MALD1_sR,MALD1,15308,108,words22,2,15308_22,747,TRUE,22,8529,inch,InC,8,1,7,6,2,1,3,429,5,33,18,631,18072,831,35632579,4
invent,MALD1_sR,MALD1,15308,544,words22,1,15308_22,786,TRUE,22,9126,invent,InvEnt,4,4,0,2,2,2,6,553,7,7,5,235,1153,154,1413503,7
item,MALD1_sR,MALD1,15308,259,words22,4,15308_22,580,TRUE,22,9256,item,YtM,2,2,0,2,0,2,4,407,5,10,7,628,9217,945,296541110,5
jolly,MALD1_sR,MALD1,15308,305,words22,1,15308_22,692,TRUE,22,9364,jolly,Jali,8,8,0,6,2,2,4,589,6,65,18,382,669,97,2522302,5
knot,MALD1_sR,MALD1,15308,717,words22,1,15308_22,972,TRUE,22,9545,knot,nat,27,27,0,23,4,1,3,497,5,93,14,188,1998,145,2981225,4
lame,MALD1_sR,MALD1,15308,492,words22,3,15308_22,815,TRUE,22,9618,lame,lem,28,23,5,18,10,1,3,364,5,87,41,557,1120,359,3018425,4
leather,MALD1_sR,MALD1,15308,522,words22,3,15308_22,760,TRUE,22,9757,leather,lEDX,10,10,0,6,4,2,4,459,8,42,7,693,7272,336,42716044,5
marine,MALD1_sR,MALD1,15308,116,words22,3,15308_22,816,TRUE,22,10453,marine,mXin,7,5,2,4,3,2,4,485,7,32,24,718,9545,1781,37146628,5
meter,MALD1_sR,MALD1,15308,250,words22,1,15308_22,932,TRUE,22,10764,meter,mitX,11,8,3,8,3,2,4,599,6,68,26,317,4244,389,22874915,5
morale,MALD1_sR,MALD1,15308,709,words22,1,15308_22,949,TRUE,22,11127,morale,mX@l,2,2,0,1,1,2,4,520,7,13,6,210,1594,388,1709786,5
mystery,MALD1_sR,MALD1,15308,608,words22,1,15308_22,771,TRUE,22,11339,mystery,mIstXi,4,2,2,2,2,3,6,520,7,9,2,1171,7441,1772,19281540,7
naval,MALD1_sR,MALD1,15308,120,words22,1,15308_22,783,TRUE,22,11425,naval,nevL,5,4,1,1,4,2,5,459,5,12,10,292,3333,683,8091902,5
node,MALD1_sR,MALD1,15308,360,words22,1,15308_22,752,TRUE,22,11604,node,nod,20,17,3,13,7,1,3,390,5,89,23,25,903,31,22292005,4
parent,MALD1_sR,MALD1,15308,294,words22,2,15308_22,588,TRUE,22,12422,parent,p@rxnt,3,0,3,2,1,2,6,386,7,14,6,670,14979,2746,46516566,7
park,MALD1_sR,MALD1,15308,494,words22,5,15308_22,570,TRUE,22,12435,park,park,18,12,6,9,9,1,4,369,5,52,29,3678,42050,3560,141555213,5
paw,MALD1_sR,MALD1,15308,272,words22,2,15308_22,826,TRUE,22,12573,paw,pc,19,15,4,11,8,1,2,357,4,78,37,159,1030,39,2007280,3
pesky,MALD1_sR,MALD1,15308,385,words22,2,15308_22,938,TRUE,22,12818,pesky,pEski,1,1,0,1,0,2,5,548,5,6,3,52,369,60,625873,5
pew,MALD1_sR,MALD1,15308,280,words22,1,15308_22,1239,TRUE,22,12848,pew,pyu,9,5,4,7,2,1,3,265,4,53,31,53,1478,259,1115032,4
pox,MALD1_sR,MALD1,15308,268,words22,1,15308_22,912,TRUE,22,13431,pox,paks,7,5,2,5,2,1,4,549,3,66,27,75,249,46,614286,4
queer,MALD1_sR,MALD1,15308,256,words22,1,15308_22,739,TRUE,22,14084,queer,kwIr,10,9,1,2,8,1,4,418,6,29,2,296,928,43,2717979,5
ramp,MALD1_sR,MALD1,15308,652,words22,1,15308_22,603,TRUE,22,14204,ramp,r@mp,14,10,4,10,4,1,4,365,5,40,29,147,1831,210,4374407,5
saga,MALD1_sR,MALD1,15308,409,words22,3,15308_22,970,TRUE,22,15069,saga,sagx,1,1,0,0,1,2,4,424,5,23,26,40,1190,218,4046853,5
sector,MALD1_sR,MALD1,15308,493,words22,4,15308_22,1115,TRUE,22,15350,sector,sEktX,9,6,3,8,1,2,5,608,7,32,8,360,10372,1975,48747184,6
shod,MALD1_sR,MALD1,15308,419,words22,1,15308_22,956,TRUE,22,15591,shod,Sad,18,15,3,13,5,1,3,542,5,72,11,6,100,8,201094,4
smash,MALD1_sR,MALD1,15308,44,words22,1,15308_22,908,TRUE,22,15851,smash,sm@S,4,2,2,3,1,1,4,577,6,10,6,421,1210,199,3192305,5
soldier,MALD1_sR,MALD1,15308,785,words22,1,15308_22,755,TRUE,22,15955,soldier,solJX,1,0,1,0,1,2,5,578,8,7,4,1985,6973,1751,10034915,6
spring,MALD1_sR,MALD1,15308,17,words22,3,15308_22,795,TRUE,22,16189,spring,sprIG,5,4,1,2,3,2,5,503,7,12,15,1597,25633,2229,64816752,6
squash,MALD1_sR,MALD1,15308,139,words22,1,15308_22,817,TRUE,22,16220,squash,skwaS,5,3,2,2,3,1,5,612,7,5,2,223,2311,103,3985349,6
swell,MALD1_sR,MALD1,15308,203,words22,3,15308_22,810,TRUE,22,16813,swell,swEl,10,8,2,6,4,1,4,530,6,31,15,1061,1346,125,2214467,5
tendon,MALD1_sR,MALD1,15308,545,words22,2,15308_22,1079,TRUE,22,17116,tendon,tEnd|n,2,1,1,0,2,2,6,589,7,6,4,29,522,20,789636,7
third,MALD1_sR,MALD1,15308,626,words22,5,15308_22,600,TRUE,22,17266,third,TRd,7,7,0,6,1,1,3,413,6,34,3,3801,51534,7356,95490673,4
tinsel,MALD1_sR,MALD1,15308,663,words22,1,15308_22,702,TRUE,22,17388,tinsel,tInsL,2,2,0,2,0,2,6,442,7,16,4,24,169,15,277040,7
torque,MALD1_sR,MALD1,15308,798,words22,4,15308_22,605,TRUE,22,17509,torque,tork,11,8,3,4,7,1,4,357,4,52,0,37,1024,18,4264924,5
traitor,MALD1_sR,MALD1,15308,528,words22,1,15308_22,916,TRUE,22,17580,traitor,tretX,3,2,1,1,2,2,5,360,8,30,3,540,566,127,698922,6
troll,MALD1_sR,MALD1,15308,342,words22,1,15308_22,581,TRUE,22,17757,troll,trol,9,5,4,4,5,1,4,441,6,29,11,138,714,50,2080526,5
trouble,MALD1_sR,MALD1,15308,103,words22,2,15308_22,514,TRUE,22,17770,trouble,tr^bL,5,4,1,3,2,2,6,365,8,17,4,11401,22552,6621,24522535,7
try,MALD1_sR,MALD1,15308,704,words22,1,15308_22,997,TRUE,22,17802,try,trY,19,10,9,6,13,1,3,388,4,44,19,24314,63020,22091,114392006,4
vest,MALD1_sR,MALD1,15308,496,words22,1,15308_22,827,TRUE,22,18482,vest,vEst,19,16,3,14,5,1,4,413,5,45,27,284,1568,208,3720750,5
vine,MALD1_sR,MALD1,15308,783,words22,3,15308_22,859,TRUE,22,18570,vine,vYn,21,19,2,14,7,1,3,589,5,78,35,107,1364,55,3646886,4
widen,MALD1_sR,MALD1,15308,283,words22,1,15308_22,851,TRUE,22,19022,widen,wYdN,2,1,1,1,1,2,5,412,6,42,16,42,788,105,1181299,6
wild,MALD1_sR,MALD1,15308,67,words22,3,15308_22,760,TRUE,22,19036,wild,wYld,10,8,2,7,3,1,4,524,5,50,24,2923,17681,2361,39947661,5
ad,MALD1_sR,MALD1,15321,21,words12,3,15321_12,895,TRUE,12,217,ad,@d,25,10,15,15,10,1,2,539,3,82,61,694,9589,2671,78774169,3
addressee,MALD1_sR,MALD1,15321,239,words12,1,15321_12,1115,TRUE,12,234,addressee,@drEsi,1,0,1,0,1,3,6,567,9,2,3,6,164,1,513417,6
allied,MALD1_sR,MALD1,15321,321,words12,5,15321_12,706,TRUE,12,522,allied,xlYd,12,10,2,6,6,2,4,427,7,17,7,147,3336,821,7508812,5
anger,MALD1_sR,MALD1,15321,738,words12,1,15321_12,608,TRUE,12,718,anger,@GgX,3,2,1,1,2,2,4,320,6,12,29,991,10499,2478,7991258,5
banshee,MALD1_sR,MALD1,15321,519,words12,2,15321_12,944,TRUE,12,1513,banshee,b@nSi,1,1,0,0,1,2,5,488,5,5,0,57,75,3,656140,4
birdie,MALD1_sR,MALD1,15321,524,words12,1,15321_12,799,TRUE,12,1856,birdie,bRdi,7,6,1,3,4,2,4,502,7,65,6,253,796,31,775268,5
bother,MALD1_sR,MALD1,15321,335,words12,5,15321_12,631,TRUE,12,2085,bother,baDX,3,3,0,2,1,2,4,371,7,19,14,3436,4885,1058,5113916,5
bouquet,MALD1_sR,MALD1,15321,733,words12,3,15321_12,665,TRUE,12,2101,bouquet,boke,1,0,1,1,0,2,4,431,8,7,3,164,807,82,5143984,5
boutique,MALD1_sR,MALD1,15321,373,words12,1,15321_12,1093,TRUE,12,2107,boutique,butik,2,0,2,0,2,2,5,529,9,5,1,55,1017,87,6243406,6
brutally,MALD1_sR,MALD1,15321,218,words12,3,15321_12,948,TRUE,12,2261,brutally,brutLi,1,0,1,0,1,3,7,599,7,1,0,92,891,325,772345,7
bulletin,MALD1_sR,MALD1,15321,714,words12,2,15321_12,1097,TRUE,12,2300,bulletin,bUl|tN,1,0,1,0,1,3,7,657,9,2,1,183,2136,239,21744475,5
but,MALD1_sR,MALD1,15321,694,words12,1,15321_12,901,TRUE,12,2373,but,b^t,35,30,5,21,14,1,3,289,4,101,40,225291,1149758,330971,999908295,4
cannon,MALD1_sR,MALD1,15321,713,words12,1,15321_12,651,TRUE,12,2544,cannon,k@n|n,2,2,0,2,0,2,5,381,7,87,19,444,1778,231,5380528,6
chaste,MALD1_sR,MALD1,15321,92,words12,1,15321_12,746,TRUE,12,2977,chaste,Cest,9,8,1,6,3,1,4,513,7,20,5,30,238,13,289676,4
chat,MALD1_sR,MALD1,15321,640,words12,1,15321_12,954,TRUE,12,2982,chat,C@t,22,17,5,16,6,1,3,346,5,60,32,830,2994,745,83643143,4
click,MALD1_sR,MALD1,15321,2,words12,2,15321_12,740,TRUE,12,3288,click,klIk,19,14,5,8,11,1,4,352,6,67,16,327,4675,804,536761994,5
climb,MALD1_sR,MALD1,15321,320,words12,4,15321_12,955,TRUE,12,3296,climb,klYm,5,4,1,3,2,1,4,394,6,39,3,1007,6010,612,5699767,5
cock,MALD1_sR,MALD1,15321,536,words12,1,15321_12,980,TRUE,12,3367,cock,kak,30,24,6,18,12,1,3,419,5,161,23,580,722,34,37575461,4
don,MALD1_sR,MALD1,15321,403,words12,2,15321_12,774,TRUE,12,5180,don,dan,19,18,1,13,6,1,3,347,4,135,61,321085,12771,4419,26009351,4
dreamed,MALD1_sR,MALD1,15321,734,words12,4,15321_12,626,TRUE,12,5264,dreamed,drimd,2,1,1,0,2,1,5,446,7,8,4,784,2823,398,1698333,5
elapse,MALD1_sR,MALD1,15321,15,words12,2,15321_12,932,TRUE,12,5506,elapse,xl@ps,3,1,2,3,0,2,5,649,7,9,4,0,50,4,176096,6
fame,MALD1_sR,MALD1,15321,629,words12,3,15321_12,995,TRUE,12,6199,fame,fem,24,19,5,14,10,1,3,380,5,63,28,441,5747,1183,10968010,4
farther,MALD1_sR,MALD1,15321,57,words12,1,15321_12,961,TRUE,12,6235,farther,farDX,1,0,1,1,0,2,5,465,7,11,2,287,5490,467,2666579,5
fauna,MALD1_sR,MALD1,15321,188,words12,1,15321_12,965,TRUE,12,6271,fauna,fcnx,1,0,1,0,1,2,4,519,6,13,5,27,572,20,2298940,5
fixed,MALD1_sR,MALD1,15321,588,words12,3,15321_12,957,TRUE,12,6470,fixed,fIkst,3,1,2,1,2,1,5,421,5,13,10,1647,8507,1011,49221217,5
folio,MALD1_sR,MALD1,15321,135,words12,7,15321_12,941,TRUE,12,6619,folio,folio,2,1,1,2,0,3,5,569,5,8,6,4,164,3,1842202,5
force,MALD1_sR,MALD1,15321,165,words12,2,15321_12,754,TRUE,12,6650,force,fors,16,14,2,7,9,1,4,478,6,62,13,3604,45496,10829,79207090,5
genital,MALD1_sR,MALD1,15321,370,words12,1,15321_12,717,TRUE,12,7086,genital,JEn|tL,2,0,2,0,2,3,7,480,8,2,2,27,633,55,2264034,8
gnash,MALD1_sR,MALD1,15321,705,words12,1,15321_12,1009,TRUE,12,7248,gnash,n@S,15,14,1,10,5,1,3,487,6,53,2,5,18,5,66277,4
goose,MALD1_sR,MALD1,15321,261,words12,1,15321_12,753,TRUE,12,7294,goose,gus,12,11,1,9,3,1,3,437,6,49,18,665,1695,185,3739646,4
grain,MALD1_sR,MALD1,15321,130,words12,2,15321_12,678,TRUE,12,7340,grain,gren,20,16,4,7,13,1,4,459,6,69,18,243,5014,520,10244623,5
hurdle,MALD1_sR,MALD1,15321,176,words12,1,15321_12,1909,TRUE,12,8137,hurdle,hRdL,5,4,1,3,2,2,5,439,7,16,5,37,880,190,1048302,6
image,MALD1_sR,MALD1,15321,103,words12,1,15321_12,880,TRUE,12,8292,image,ImIJ,4,3,1,1,3,2,4,405,6,7,2,1154,27874,2858,197884704,5
ironic,MALD1_sR,MALD1,15321,131,words12,3,15321_12,674,TRUE,12,9188,ironic,YranIk,3,2,1,3,0,3,6,546,7,4,3,312,2459,444,1760165,7
kayak,MALD1_sR,MALD1,15321,480,words12,3,15321_12,722,TRUE,12,9451,kayak,kY@k,3,3,0,3,0,2,4,540,6,12,3,26,667,21,2629920,5
leaden,MALD1_sR,MALD1,15321,776,words12,1,15321_12,949,TRUE,12,9737,leaden,lEdN,5,4,1,3,2,2,5,386,6,38,9,5,194,5,116308,5
liquor,MALD1_sR,MALD1,15321,539,words12,4,15321_12,649,TRUE,12,9989,liquor,lIkX,14,11,3,10,4,2,4,329,7,49,2,882,2352,317,4727755,5
medial,MALD1_sR,MALD1,15321,621,words12,3,15321_12,649,TRUE,12,10622,medial,midiL,1,1,0,1,0,2,6,403,6,2,8,21,356,10,931159,4
meeting,MALD1_sR,MALD1,15321,568,words12,2,15321_12,1003,TRUE,12,10644,meeting,mitIG,2,2,0,2,0,2,5,420,8,19,4,6752,32229,7993,120815168,6
merge,MALD1_sR,MALD1,15321,104,words12,2,15321_12,907,TRUE,12,10715,merge,mRJ,11,7,4,7,4,1,3,440,6,48,15,71,983,122,5962129,4
mild,MALD1_sR,MALD1,15321,697,words12,4,15321_12,778,TRUE,12,10821,mild,mYld,8,7,1,6,2,1,4,413,5,31,16,245,4307,428,6826082,5
monitor,MALD1_sR,MALD1,15321,505,words12,2,15321_12,859,TRUE,12,11072,monitor,man|tX,1,1,0,0,1,3,6,554,8,6,2,669,9472,1094,43856439,7
neighbor,MALD1_sR,MALD1,15321,323,words12,7,15321_12,583,TRUE,12,11480,neighbor,nebX,5,5,0,3,2,2,4,456,9,40,1,864,6300,1311,5753134,5
ode,MALD1_sR,MALD1,15321,572,words12,6,15321_12,881,TRUE,12,11868,ode,od,24,12,12,13,11,1,2,334,4,100,34,41,355,33,1648112,3
once,MALD1_sR,MALD1,15321,27,words12,1,15321_12,661,TRUE,12,11924,once,w^ns,4,2,2,2,2,1,4,393,4,17,11,17589,99383,17510,111894502,5
panel,MALD1_sR,MALD1,15321,680,words12,2,15321_12,784,TRUE,12,12337,panel,p@nL,7,6,1,2,5,2,5,379,6,30,12,372,12028,3031,53785270,6
pile,MALD1_sR,MALD1,15321,118,words12,2,15321_12,945,TRUE,12,12993,pile,pYl,28,25,3,20,8,1,3,398,5,99,28,672,5040,411,4828878,4
pod,MALD1_sR,MALD1,15321,594,words12,3,15321_12,907,TRUE,12,13201,pod,pad,23,17,6,14,9,1,3,389,4,62,31,408,998,64,5209484,4
poker,MALD1_sR,MALD1,15321,177,words12,2,15321_12,705,TRUE,12,13220,poker,pokX,8,6,2,4,4,2,4,398,6,39,15,819,1501,266,129058482,5
porch,MALD1_sR,MALD1,15321,454,words12,1,15321_12,785,TRUE,12,13318,porch,porC,7,5,2,2,5,1,4,470,6,25,16,491,5514,271,3420626,5
prim,MALD1_sR,MALD1,15321,209,words12,1,15321_12,950,TRUE,12,13630,prim,prIm,10,7,3,4,6,1,4,348,5,31,26,19,219,11,668388,5
rare,MALD1_sR,MALD1,15321,624,words12,6,15321_12,742,TRUE,12,14240,rare,rEr,22,20,2,17,5,1,3,352,5,122,30,1087,12194,1902,29730256,4
reason,MALD1_sR,MALD1,15321,427,words12,3,15321_12,772,TRUE,12,14317,reason,rizN,6,5,1,6,0,2,5,480,7,33,13,9858,46135,13149,65071192,6
rut,MALD1_sR,MALD1,15321,297,words12,2,15321_12,1961,TRUE,12,15033,rut,r^t,28,25,3,18,10,1,3,317,4,90,36,78,710,37,557418,4
senator,MALD1_sR,MALD1,15321,122,words12,3,15321_12,1185,TRUE,12,15405,senator,sEn|tX,2,0,2,0,2,3,6,583,8,12,2,1691,26139,19577,15023396,7
serve,MALD1_sR,MALD1,15321,246,words12,5,15321_12,1359,TRUE,12,15474,serve,sRv,14,10,4,7,7,1,3,607,6,44,15,1935,23965,2931,36697856,4
shard,MALD1_sR,MALD1,15321,659,words12,2,15321_12,754,TRUE,12,15531,shard,Sard,12,11,1,9,3,1,4,450,6,47,19,37,166,9,288486,5
shill,MALD1_sR,MALD1,15321,703,words12,1,15321_12,786,TRUE,12,15570,shill,SIl,25,23,2,21,4,1,3,417,6,98,16,14,78,26,167644,4
shoulder,MALD1_sR,MALD1,15321,138,words12,1,15321_12,693,TRUE,12,15608,shoulder,SoldX,2,2,0,2,0,2,5,495,9,19,1,1336,16622,1069,12100391,6
sloth,MALD1_sR,MALD1,15321,216,words12,1,15321_12,657,TRUE,12,15832,sloth,slcT,3,2,1,1,2,1,4,529,6,15,8,74,290,52,519816,4
sought,MALD1_sR,MALD1,15321,121,words12,2,15321_12,918,TRUE,12,16021,sought,sct,24,19,5,18,6,1,3,456,4,64,7,240,10896,813,12399522,4
spilled,MALD1_sR,MALD1,15321,800,words12,2,15321_12,756,TRUE,12,16116,spilled,spIld,3,2,1,1,2,1,5,559,7,10,5,324,1819,187,978351,5
still,MALD1_sR,MALD1,15321,376,words12,4,15321_12,988,TRUE,12,16370,still,stIl,17,14,3,5,12,1,4,549,6,49,18,40225,195162,47989,190450277,5
sudden,MALD1_sR,MALD1,15321,16,words12,3,15321_12,655,TRUE,12,16631,sudden,s^dN,3,3,0,2,1,2,5,371,7,22,7,1707,10030,2581,6982656,6
tack,MALD1_sR,MALD1,15321,603,words12,1,15321_12,765,TRUE,12,16920,tack,t@k,37,27,10,23,14,1,3,377,5,115,32,108,912,90,2548232,4
thwart,MALD1_sR,MALD1,15321,760,words12,1,15321_12,940,TRUE,12,17330,thwart,Twort,4,2,2,4,0,1,5,593,7,6,2,17,531,56,582616,6
twig,MALD1_sR,MALD1,15321,205,words12,2,15321_12,786,TRUE,12,17888,twig,twIg,8,7,1,4,4,1,4,333,5,19,10,69,412,10,606887,5
variance,MALD1_sR,MALD1,15321,455,words12,2,15321_12,2194,TRUE,12,18336,variance,vErixns,2,1,1,0,2,3,7,564,9,4,1,19,3962,28,5714455,8
vial,MALD1_sR,MALD1,15321,449,words12,1,15321_12,858,TRUE,12,18505,vial,vYL,10,6,4,1,9,2,4,389,5,19,22,66,496,46,1014511,5
wealth,MALD1_sR,MALD1,15321,472,words12,3,15321_12,2379,TRUE,12,18859,wealth,wElT,6,5,1,1,5,1,4,521,7,26,4,324,8451,1231,14325239,5
wick,MALD1_sR,MALD1,15321,348,words12,4,15321_12,707,TRUE,12,19016,wick,wIk,26,23,3,16,10,1,3,333,5,119,29,128,393,25,1224557,4
yankee,MALD1_sR,MALD1,15321,367,words12,9,15321_12,780,TRUE,12,19239,Yankee,y@Gki,3,2,1,2,1,2,5,444,7,16,4,459,1670,280,4515905,6
zip,MALD1_sR,MALD1,15321,699,words12,6,15321_12,806,TRUE,12,19313,zip,zIp,14,13,1,12,2,1,3,446,4,52,23,389,1981,232,70559906,4
actor,MALD1_sR,MALD1,15345,162,words18,6,15345_18,695,TRUE,18,207,actor,@ktX,5,2,3,4,1,2,4,416,6,25,9,1343,9611,3815,16283217,5
altar,MALD1_sR,MALD1,15345,630,words18,1,15345_18,1051,TRUE,18,562,altar,cltX,5,1,4,4,1,2,4,469,6,21,13,259,2233,171,2628192,5
asset,MALD1_sR,MALD1,15345,477,words18,2,15345_18,718,TRUE,18,1151,asset,@sEt,1,0,1,1,0,2,4,479,6,10,6,193,3047,469,18181917,5
bat,MALD1_sR,MALD1,15345,466,words18,1,15345_18,799,TRUE,18,1598,bat,b@t,40,33,7,25,15,1,3,384,4,101,54,1052,4169,567,7734454,4
beauty,MALD1_sR,MALD1,15345,33,words18,3,15345_18,683,TRUE,18,1654,beauty,byuti,3,0,3,2,1,2,5,409,6,17,3,2460,12883,1477,87579908,6
brown,MALD1_sR,MALD1,15345,329,words18,1,15345_18,583,TRUE,18,2247,brown,brWn,10,8,2,3,7,1,4,438,6,44,15,3066,37344,6568,64118556,5
bruise,MALD1_sR,MALD1,15345,43,words18,2,15345_18,736,TRUE,18,2252,bruise,bruz,10,8,2,3,7,1,4,447,7,68,6,165,531,74,388443,5
bunker,MALD1_sR,MALD1,15345,214,words18,1,15345_18,900,TRUE,18,2322,bunker,b^GkX,4,3,1,2,2,2,5,442,7,18,17,239,1276,302,1914784,6
chick,MALD1_sR,MALD1,15345,376,words18,1,15345_18,981,TRUE,18,3039,chick,CIk,23,22,1,16,7,1,3,358,6,66,15,1334,1506,193,7776742,4
clear,MALD1_sR,MALD1,15345,730,words18,1,15345_18,703,TRUE,18,3269,clear,klIr,9,8,1,5,4,1,4,431,6,38,11,8763,51346,12859,88453565,5
column,MALD1_sR,MALD1,15345,283,words18,1,15345_18,886,TRUE,18,3481,column,kalM,2,2,0,0,2,2,5,380,7,28,1,559,7464,1245,35987108,6
comet,MALD1_sR,MALD1,15345,495,words18,2,15345_18,952,TRUE,18,3502,comet,kamxt,4,2,2,1,3,2,5,482,6,14,7,157,1913,156,3125758,6
cousin,MALD1_sR,MALD1,15345,432,words18,3,15345_18,597,TRUE,18,4080,cousin,k^zN,1,1,0,1,0,2,5,415,7,14,3,2491,5245,668,4263607,6
defy,MALD1_sR,MALD1,15345,302,words18,1,15345_18,815,TRUE,18,4594,defy,dIfY,4,2,2,0,4,2,4,617,5,12,6,158,922,163,800149,5
depart,MALD1_sR,MALD1,15345,145,words18,2,15345_18,763,TRUE,18,4701,depart,dxpart,1,0,1,1,0,2,6,399,7,2,4,109,854,77,4975122,7
dock,MALD1_sR,MALD1,15345,567,words18,1,15345_18,572,TRUE,18,5131,dock,dak,22,21,1,16,6,1,3,354,5,126,20,497,2769,241,6018421,4
drone,MALD1_sR,MALD1,15345,409,words18,1,15345_18,733,TRUE,18,5294,drone,dron,12,11,1,5,7,1,4,413,6,35,17,144,930,178,725818,5
ever,MALD1_sR,MALD1,15345,400,words18,1,15345_18,665,TRUE,18,5926,ever,EvX,6,2,4,6,0,2,3,365,5,32,28,36170,88129,25083,100276816,4
flop,MALD1_sR,MALD1,15345,113,words18,1,15345_18,741,TRUE,18,6562,flop,flap,9,7,2,5,4,1,4,354,5,18,18,118,836,240,2648219,5
flute,MALD1_sR,MALD1,15345,350,words18,1,15345_18,792,TRUE,18,6597,flute,flut,12,10,2,2,10,1,4,409,6,29,9,108,881,86,4091997,5
frisk,MALD1_sR,MALD1,15345,223,words18,1,15345_18,763,TRUE,18,6815,frisk,frIsk,2,1,1,2,0,1,5,499,6,16,10,79,86,20,152512,6
gent,MALD1_sR,MALD1,15345,139,words18,2,15345_18,665,TRUE,18,7092,gent,JEnt,17,14,3,12,5,1,4,391,5,57,32,82,175,31,1074241,5
glow,MALD1_sR,MALD1,15345,527,words18,3,15345_18,643,TRUE,18,7234,glow,glo,13,7,6,8,5,1,3,308,5,50,17,293,3916,139,5332631,4
ham,MALD1_sR,MALD1,15345,167,words18,1,15345_18,759,TRUE,18,7607,ham,h@m,26,24,2,14,12,1,3,464,4,105,56,591,2215,283,6719894,4
howl,MALD1_sR,MALD1,15345,115,words18,1,15345_18,725,TRUE,18,8081,howl,hWl,15,13,2,13,2,1,3,376,5,82,13,105,794,60,835214,4
khaki,MALD1_sR,MALD1,15345,4,words18,1,15345_18,840,TRUE,18,9470,khaki,k@ki,12,12,0,5,7,2,4,399,6,62,1,42,603,19,1481504,5
links,MALD1_sR,MALD1,15345,262,words18,1,15345_18,867,TRUE,18,9968,links,lIGks,3,2,1,2,1,1,5,408,5,29,21,141,5966,537,339944467,6
lurch,MALD1_sR,MALD1,15345,462,words18,2,15345_18,810,TRUE,18,10192,lurch,lRC,8,8,0,6,2,1,3,456,6,37,8,43,432,40,209481,4
moss,MALD1_sR,MALD1,15345,272,words18,2,15345_18,686,TRUE,18,11180,moss,mcs,15,14,1,12,3,1,3,480,5,90,44,145,2605,209,5520302,4
normally,MALD1_sR,MALD1,15345,755,words18,1,15345_18,615,TRUE,18,11665,normally,normLi,1,0,1,0,1,2,6,529,7,7,2,818,7905,1911,19884097,5
notable,MALD1_sR,MALD1,15345,592,words18,3,15345_18,620,TRUE,18,11681,notable,notxbL,2,1,1,2,0,3,7,589,8,2,3,31,3072,145,5045328,8
partridge,MALD1_sR,MALD1,15345,308,words18,2,15345_18,801,TRUE,18,12485,partridge,partrIJ,1,1,0,1,0,2,7,629,10,2,4,173,245,11,1095499,6
pay,MALD1_sR,MALD1,15345,105,words18,1,15345_18,883,TRUE,18,12575,pay,pe,33,20,13,17,16,1,2,292,4,147,47,12985,51421,14803,129203391,3
rash,MALD1_sR,MALD1,15345,577,words18,3,15345_18,614,TRUE,18,14248,rash,r@S,26,20,6,15,11,1,3,447,5,86,35,410,1209,150,2430246,4
relict,MALD1_sR,MALD1,15345,129,words18,1,15345_18,993,TRUE,18,14529,relict,rElIkt,1,0,1,0,1,2,6,424,6,3,2,2,33,0,103428,6
rich,MALD1_sR,MALD1,15345,144,words18,1,15345_18,701,TRUE,18,14802,rich,rIC,21,20,1,10,11,1,3,439,5,83,24,4100,23965,4320,37207657,4
scrape,MALD1_sR,MALD1,15345,37,words18,2,15345_18,914,TRUE,18,15276,scrape,skrep,3,2,1,1,2,1,5,569,7,8,6,210,1357,92,699467,6
sneeze,MALD1_sR,MALD1,15345,100,words18,4,15345_18,804,TRUE,18,15893,sneeze,sniz,3,2,1,1,2,1,4,566,7,46,2,150,352,72,366864,5
stalked,MALD1_sR,MALD1,15345,87,words18,1,15345_18,882,TRUE,18,16263,stalked,stckt,1,0,1,0,1,1,5,576,7,12,5,79,661,86,309313,5
steep,MALD1_sR,MALD1,15345,750,words18,1,15345_18,772,TRUE,18,16324,steep,stip,10,8,2,3,7,1,4,373,6,41,15,125,4143,238,3399504,5
stroke,MALD1_sR,MALD1,15345,339,words18,1,15345_18,643,TRUE,18,16493,stroke,strok,7,6,1,0,7,1,5,452,7,26,10,667,5765,699,11440396,6
switch,MALD1_sR,MALD1,15345,173,words18,2,15345_18,1005,TRUE,18,16829,switch,swIC,11,10,1,5,6,1,4,475,7,21,6,1434,6924,979,45341217,5
thai,MALD1_sR,MALD1,15345,667,words18,1,15345_18,867,TRUE,18,17190,Thai,tY,34,22,12,18,16,1,2,355,5,126,19,167,2063,175,13729139,3
thrill,MALD1_sR,MALD1,15345,471,words18,2,15345_18,619,TRUE,18,17302,thrill,TrIl,7,6,1,6,1,1,4,467,7,17,5,429,2027,380,2690731,5
tops,MALD1_sR,MALD1,15345,271,words18,1,15345_18,684,TRUE,18,17494,tops,taps,5,4,1,3,2,1,4,452,5,38,30,375,3305,257,11774961,5
trance,MALD1_sR,MALD1,15345,25,words18,7,15345_18,841,TRUE,18,17587,trance,tr@ns,3,3,0,2,1,1,5,537,7,14,8,268,671,24,7394147,6
tryst,MALD1_sR,MALD1,15345,157,words18,1,15345_18,1009,TRUE,18,17803,tryst,trIst,4,3,1,4,0,1,5,403,4,24,3,20,118,16,209168,6
vie,MALD1_sR,MALD1,15345,36,words18,1,15345_18,973,TRUE,18,18540,vie,vY,25,18,7,17,8,1,2,308,4,105,48,110,616,43,2473789,3
will,MALD1_sR,MALD1,15345,102,words18,1,15345_18,627,TRUE,18,19044,will,wIl,34,28,6,24,10,1,3,308,5,134,33,108306,501986,140565,1356315700,4
abound,MALD1_sR,MALD1,15351,761,words45,2,15351_45,674,TRUE,45,62,abound,xbWnd,2,1,1,2,0,2,5,549,7,5,5,18,1068,31,1494791,6
ado,MALD1_sR,MALD1,15351,205,words45,7,15351_45,1040,TRUE,45,276,ado,xdu,4,1,3,2,2,2,3,347,4,18,29,77,253,60,1581917,4
allow,MALD1_sR,MALD1,15351,610,words45,1,15351_45,755,TRUE,45,529,allow,xlW,5,4,1,2,3,2,3,678,6,26,13,2263,25960,4805,67052832,4
alto,MALD1_sR,MALD1,15351,209,words20,1,15351_20,1830,TRUE,20,571,alto,@lto,1,0,1,0,1,2,4,519,5,6,19,69,1476,100,6381409,5
baby,MALD1_sR,MALD1,15351,124,words20,6,15351_20,912,TRUE,20,1412,baby,bebi,5,4,1,3,2,2,4,372,5,55,17,25978,34012,8993,117716269,5
bay,MALD1_sR,MALD1,15351,439,words45,2,15351_45,691,TRUE,45,1621,bay,be,35,22,13,17,18,1,2,262,4,168,46,1236,19167,2111,78975506,3
bias,MALD1_sR,MALD1,15351,65,words20,1,15351_20,857,TRUE,20,1789,bias,bYxs,1,1,0,1,0,2,4,629,5,24,20,82,4418,640,8808565,5
bird,MALD1_sR,MALD1,15351,715,words45,1,15351_45,562,TRUE,45,1855,bird,bRd,22,18,4,12,10,1,3,307,5,110,17,2318,11125,1383,29443460,4
blood,MALD1_sR,MALD1,15351,122,words20,4,15351_20,890,TRUE,20,1942,blood,bl^d,7,6,1,2,5,1,4,369,6,20,8,9492,36787,5666,61356375,5
bluff,MALD1_sR,MALD1,15351,394,words45,2,15351_45,824,TRUE,45,1969,bluff,bl^f,5,3,2,3,2,1,4,569,6,15,7,317,1200,141,3906971,5
bounty,MALD1_sR,MALD1,15351,259,words45,3,15351_45,795,TRUE,45,2100,bounty,bWnti,1,1,0,1,0,2,5,609,6,4,5,366,1057,169,2151873,6
breast,MALD1_sR,MALD1,15351,441,words45,4,15351_45,622,TRUE,45,2168,breast,brEst,6,3,3,6,0,1,5,348,7,30,5,457,10694,2117,40334563,6
briar,MALD1_sR,MALD1,15351,340,words20,4,15351_20,780,TRUE,20,2182,briar,brYX,8,8,0,4,4,2,4,358,6,53,4,39,173,25,630788,5
career,MALD1_sR,MALD1,15351,512,words45,1,15351_45,619,TRUE,45,2645,career,kXIr,2,2,0,2,0,2,4,474,7,12,10,2305,30744,4976,71249453,5
carry,MALD1_sR,MALD1,15351,360,words45,2,15351_45,655,TRUE,45,2685,carry,k@ri,19,15,4,9,10,2,4,377,6,126,31,3361,17736,3255,33056477,5
case,MALD1_sR,MALD1,15351,458,words45,2,15351_45,682,TRUE,45,2701,case,kes,22,19,3,12,10,1,3,362,5,100,44,14403,98299,33259,235573247,4
cause,MALD1_sR,MALD1,15351,389,words45,1,15351_45,741,TRUE,45,2786,cause,kcz,10,7,3,4,6,1,3,464,6,105,18,15812,32020,8057,65907985,4
cave,MALD1_sR,MALD1,15351,763,words20,4,15351_20,727,TRUE,20,2797,cave,kev,22,19,3,12,10,1,3,470,5,75,36,713,4364,413,7669404,4
chalice,MALD1_sR,MALD1,15351,478,words45,1,15351_45,1024,TRUE,45,2905,chalice,C@lxs,5,5,0,5,0,2,5,478,6,19,0,32,178,7,413313,5
charger,MALD1_sR,MALD1,15351,381,words45,2,15351_45,671,TRUE,45,2959,charger,CarJX,2,1,1,0,2,2,5,482,8,8,9,62,422,19,13863803,6
chef,MALD1_sR,MALD1,15351,62,words45,1,15351_45,687,TRUE,45,3011,chef,SEf,8,6,2,4,4,1,3,441,5,57,17,606,6096,1229,9722545,4
chosen,MALD1_sR,MALD1,15351,353,words45,4,15351_45,614,TRUE,45,3121,chosen,CozN,1,0,1,0,1,2,5,516,6,8,3,927,9439,1189,21347014,4
chronic,MALD1_sR,MALD1,15351,593,words45,1,15351_45,664,TRUE,45,3137,chronic,kranIk,3,1,2,2,1,2,6,431,8,9,1,252,6034,578,13653202,7
chum,MALD1_sR,MALD1,15351,57,words45,1,15351_45,721,TRUE,45,3153,chum,C^m,16,14,2,11,5,1,3,478,5,48,18,156,264,24,579859,4
clause,MALD1_sR,MALD1,15351,193,words45,1,15351_45,688,TRUE,45,3259,clause,klcz,4,2,2,1,3,1,4,639,7,35,11,143,2642,288,13906621,5
corn,MALD1_sR,MALD1,15351,235,words20,2,15351_20,1515,TRUE,20,3962,corn,korn,20,14,6,11,9,1,4,410,5,93,38,725,9077,780,10726347,5
council,MALD1_sR,MALD1,15351,28,words20,1,15351_20,1325,TRUE,20,4041,council,kWnsL,2,2,0,2,0,2,6,514,8,14,1,863,24475,4431,112896752,7
cower,MALD1_sR,MALD1,15351,789,words45,2,15351_45,956,TRUE,45,4092,cower,kWX,9,7,2,5,4,2,3,370,6,62,28,16,115,13,96406,4
crumple,MALD1_sR,MALD1,15351,568,words45,2,15351_45,715,TRUE,45,4254,crumple,kr^mpL,2,1,1,1,1,2,7,539,8,7,5,8,101,6,77197,8
curry,MALD1_sR,MALD1,15351,464,words20,6,15351_20,722,TRUE,20,4329,curry,kRi,14,10,4,5,9,2,3,409,6,106,18,124,2144,319,4030691,4
curve,MALD1_sR,MALD1,15351,304,words20,2,15351_20,779,TRUE,20,4338,curve,kRv,13,12,1,6,7,1,3,468,6,52,10,235,3929,424,11071742,4
dally,MALD1_sR,MALD1,15351,766,words20,2,15351_20,867,TRUE,20,4410,dally,d@li,14,13,1,13,1,2,4,499,5,80,24,39,100,2,142954,5
define,MALD1_sR,MALD1,15351,774,words45,1,15351_45,708,TRUE,45,4584,define,dIfYn,4,3,1,2,2,2,5,598,7,10,11,318,6794,1190,36090823,6
delete,MALD1_sR,MALD1,15351,590,words20,1,15351_20,588,TRUE,20,4616,delete,dxlit,2,1,1,2,0,2,5,403,7,13,5,90,496,56,33775852,6
divine,MALD1_sR,MALD1,15351,662,words45,1,15351_45,710,TRUE,45,5117,divine,dxvYn,3,3,0,0,3,2,5,629,7,9,4,594,5010,283,9421666,6
eternal,MALD1_sR,MALD1,15351,658,words45,1,15351_45,676,TRUE,45,5872,eternal,ItRnL,2,1,1,2,0,3,6,471,8,3,1,547,2514,211,7052882,7
fatal,MALD1_sR,MALD1,15351,453,words20,1,15351_20,729,TRUE,20,6253,fatal,fetL,7,5,2,3,4,2,5,360,6,9,7,362,3232,719,6786528,6
father,MALD1_sR,MALD1,15351,738,words45,4,15351_45,645,TRUE,45,6260,father,faDX,6,5,1,5,1,2,4,418,7,15,14,28279,80659,15116,48581480,5
flunk,MALD1_sR,MALD1,15351,744,words20,2,15351_20,845,TRUE,20,6587,flunk,fl^Gk,6,3,3,4,2,1,5,335,6,14,10,92,81,22,81741,6
fudge,MALD1_sR,MALD1,15351,722,words20,2,15351_20,746,TRUE,20,6853,fudge,f^J,6,6,0,3,3,1,3,527,6,18,8,185,567,82,1969555,4
garb,MALD1_sR,MALD1,15351,321,words20,3,15351_20,1195,TRUE,20,6997,garb,garb,4,2,2,1,3,1,4,394,5,28,26,16,469,37,614648,5
german,MALD1_sR,MALD1,15351,382,words20,1,15351_20,651,TRUE,20,7117,german,JRmxn,5,4,1,4,1,2,5,380,7,47,30,1624,15726,1764,53712683,6
gift,MALD1_sR,MALD1,15351,227,words20,2,15351_20,823,TRUE,20,7155,gift,gIft,5,5,0,4,1,1,4,596,5,19,10,3290,12214,1808,131428152,5
hack,MALD1_sR,MALD1,15351,319,words20,1,15351_20,848,TRUE,20,7559,hack,h@k,30,27,3,17,13,1,3,412,5,129,34,436,928,91,6547946,4
havoc,MALD1_sR,MALD1,15351,116,words45,2,15351_45,695,TRUE,45,7703,havoc,h@vxk,3,3,0,3,0,2,5,442,4,9,0,69,935,137,1697879,5
hide,MALD1_sR,MALD1,15351,170,words45,3,15351_45,804,TRUE,45,7886,hide,hYd,21,19,2,15,6,1,3,374,5,104,33,3554,7788,1521,27160697,4
how,MALD1_sR,MALD1,15351,794,words45,2,15351_45,827,TRUE,45,8076,how,hW,18,16,2,9,9,1,2,404,4,117,44,155867,351693,113754,571863383,3
hulk,MALD1_sR,MALD1,15351,619,words20,8,15351_20,1250,TRUE,20,8096,hulk,h^lk,5,4,1,2,3,1,4,379,5,21,11,208,407,77,2113535,5
humble,MALD1_sR,MALD1,15351,196,words45,1,15351_45,599,TRUE,45,8109,humble,h^mbL,6,5,1,6,0,2,6,380,7,20,14,500,2474,323,3693501,7
jewel,MALD1_sR,MALD1,15351,137,words20,4,15351_20,1002,TRUE,20,9326,jewel,JuL,6,5,1,2,4,1,3,619,6,70,5,369,1380,162,5603871,4
job,MALD1_sR,MALD1,15351,479,words45,2,15351_45,563,TRUE,45,9345,job,Jab,19,18,1,13,6,1,3,388,4,53,24,21063,72084,21065,177720493,4
judge,MALD1_sR,MALD1,15351,767,words20,3,15351_20,614,TRUE,20,9388,judge,J^J,6,5,1,4,2,1,3,470,6,16,11,4063,26228,11590,30906773,4
landed,MALD1_sR,MALD1,15351,368,words20,1,15351_20,850,TRUE,20,9634,landed,l@nd|d,1,1,0,1,0,2,6,460,6,7,10,653,5458,892,3730816,6
line,MALD1_sR,MALD1,15351,303,words45,1,15351_45,957,TRUE,45,9949,line,lYn,32,28,4,20,12,1,3,328,5,123,59,10515,70663,14206,280022418,4
lineal,MALD1_sR,MALD1,15351,539,words20,1,15351_20,659,TRUE,20,9951,lineal,lIniL,2,2,0,0,2,3,6,509,6,5,2,0,54,2,201862,6
lose,MALD1_sR,MALD1,15351,418,words45,2,15351_45,718,TRUE,45,10124,lose,luz,17,14,3,9,8,1,3,499,5,145,47,8382,21791,6458,24140555,4
lottery,MALD1_sR,MALD1,15351,10,words45,1,15351_45,702,TRUE,45,10131,lottery,latXi,1,1,0,1,0,3,5,497,7,6,2,344,1828,334,11776450,6
lucent,MALD1_sR,MALD1,15351,540,words45,1,15351_45,647,TRUE,45,10155,lucent,lusNt,1,0,1,0,1,2,6,534,7,0,1,5,187,45,1766342,6
lunch,MALD1_sR,MALD1,15351,424,words20,2,15351_20,640,TRUE,20,10184,lunch,l^nC,7,7,0,6,1,1,4,419,6,24,9,5310,12963,1530,20807697,5
lyre,MALD1_sR,MALD1,15351,325,words45,2,15351_45,583,TRUE,45,10211,lyre,lYr,25,23,2,15,10,1,3,344,4,64,18,4,98,4,300168,4
model,MALD1_sR,MALD1,15351,781,words45,3,15351_45,602,TRUE,45,10995,model,madL,9,9,0,8,1,2,5,307,6,28,19,1635,42175,2736,161212032,6
mogul,MALD1_sR,MALD1,15351,731,words20,1,15351_20,1588,TRUE,20,11017,mogul,mogL,4,3,1,1,3,2,5,499,6,30,4,47,891,159,753098,6
mutton,MALD1_sR,MALD1,15351,286,words20,6,15351_20,928,TRUE,20,11323,mutton,m^tN,4,3,1,2,2,2,5,579,5,24,10,40,157,4,389582,5
nerve,MALD1_sR,MALD1,15351,324,words45,1,15351_45,950,TRUE,45,11503,nerve,nRv,6,5,1,5,1,1,3,419,6,27,8,1171,4198,612,6567853,4
off,MALD1_sR,MALD1,15351,111,words45,1,15351_45,563,TRUE,45,11875,off,cf,12,7,5,4,8,1,2,374,4,56,14,60155,190390,39513,284052274,3
package,MALD1_sR,MALD1,15351,55,words45,1,15351_45,829,TRUE,45,12247,package,p@kIJ,1,1,0,1,0,2,5,412,8,4,4,1162,11990,3336,78425554,6
pill,MALD1_sR,MALD1,15351,406,words20,1,15351_20,582,TRUE,20,12998,pill,pIl,36,32,4,25,11,1,3,325,5,114,32,603,2625,802,12755636,4
pious,MALD1_sR,MALD1,15351,84,words45,7,15351_45,1043,TRUE,45,13034,pious,pYxs,2,1,1,1,1,2,4,524,6,19,3,48,610,30,713689,5
plank,MALD1_sR,MALD1,15351,300,words45,3,15351_45,689,TRUE,45,13100,plank,pl@Gk,7,5,2,6,1,1,5,430,6,14,15,104,947,115,1265284,6
plum,MALD1_sR,MALD1,15351,163,words20,1,15351_20,807,TRUE,20,13168,plum,pl^m,10,7,3,3,7,1,4,416,5,34,16,174,1375,118,2962013,5
plume,MALD1_sR,MALD1,15351,532,words45,3,15351_45,777,TRUE,45,13172,plume,plum,7,5,2,5,2,1,4,418,6,19,11,24,670,64,1269109,5
ranger,MALD1_sR,MALD1,15351,449,words45,1,15351_45,847,TRUE,45,14221,ranger,renJX,3,2,1,2,1,2,5,559,7,15,25,379,1853,207,5077778,6
relay,MALD1_sR,MALD1,15351,5,words45,4,15351_45,767,TRUE,45,14520,relay,rile,3,2,1,0,3,2,4,529,6,18,9,152,1451,119,9275313,5
reversal,MALD1_sR,MALD1,15351,769,words45,10,15351_45,698,TRUE,45,14750,reversal,rIvRsL,2,1,1,1,1,3,7,563,9,3,2,57,1381,226,2425317,8
ring,MALD1_sR,MALD1,15351,500,words20,1,15351_20,698,TRUE,20,14838,ring,rIG,23,21,2,11,12,1,3,509,5,82,39,4730,12222,1864,54346434,4
saloon,MALD1_sR,MALD1,15351,598,words45,2,15351_45,865,TRUE,45,15094,saloon,sxlun,2,2,0,1,1,2,5,492,7,11,6,262,631,36,2961006,6
scratch,MALD1_sR,MALD1,15351,156,words20,1,15351_20,966,TRUE,20,15277,scratch,skr@C,2,2,0,0,2,1,5,606,8,7,1,961,2826,410,7458884,6
scroll,MALD1_sR,MALD1,15351,257,words45,1,15351_45,862,TRUE,45,15293,scroll,skrol,2,2,0,1,1,1,5,589,7,8,5,116,676,28,8741548,6
seize,MALD1_sR,MALD1,15351,386,words45,1,15351_45,933,TRUE,45,15375,seize,siz,22,17,5,9,13,1,3,639,6,188,7,246,1716,411,1910081,4
shaven,MALD1_sR,MALD1,15351,339,words20,3,15351_20,677,TRUE,20,15538,shaven,Sevxn,2,2,0,2,0,2,5,464,6,14,7,10,318,25,411865,5
shingle,MALD1_sR,MALD1,15351,135,words45,4,15351_45,690,TRUE,45,15576,shingle,SIGgL,6,5,1,6,0,2,6,589,8,20,7,38,260,17,641972,7
shred,MALD1_sR,MALD1,15351,115,words45,1,15351_45,759,TRUE,45,15617,shred,SrEd,8,6,2,6,2,1,4,449,6,28,7,150,669,133,851931,5
shun,MALD1_sR,MALD1,15351,791,words20,2,15351_20,661,TRUE,20,15640,shun,S^n,19,18,1,15,4,1,3,426,5,106,21,26,447,39,733434,4
sidle,MALD1_sR,MALD1,15351,351,words20,8,15351_20,1189,TRUE,20,15657,sidle,sYdL,7,5,2,3,4,2,5,510,6,38,13,54,77,4,55534,6
skit,MALD1_sR,MALD1,15351,200,words20,1,15351_20,874,TRUE,20,15764,skit,skIt,14,12,2,4,10,1,4,479,5,33,15,42,217,74,629356,5
sleep,MALD1_sR,MALD1,15351,12,words45,1,15351_45,708,TRUE,45,15798,sleep,slip,13,10,3,5,8,1,4,407,6,28,13,11625,21585,3484,29496833,5
slung,MALD1_sR,MALD1,15351,275,words45,2,15351_45,993,TRUE,45,15842,slung,sl^G,14,11,3,6,8,1,4,454,4,15,9,16,862,17,255720,4
solar,MALD1_sR,MALD1,15351,109,words20,1,15351_20,2195,TRUE,20,15951,solar,solX,13,11,2,7,6,2,4,499,6,89,15,236,9611,875,20427276,4
solder,MALD1_sR,MALD1,15351,184,words45,1,15351_45,1076,TRUE,45,15954,solder,sadX,7,6,1,4,3,2,4,420,7,31,20,2,122,6,1709674,5
speck,MALD1_sR,MALD1,15351,153,words45,4,15351_45,802,TRUE,45,16080,speck,spEk,8,7,1,1,7,1,4,523,6,30,11,95,590,52,758600,5
steam,MALD1_sR,MALD1,15351,234,words20,1,15351_20,868,TRUE,20,16321,steam,stim,8,5,3,3,5,1,4,484,6,39,13,686,4303,462,11148945,5
sterile,MALD1_sR,MALD1,15351,88,words20,1,15351_20,830,TRUE,20,16346,sterile,stErL,1,0,1,0,1,2,6,577,7,12,1,111,1028,101,2004265,7
strive,MALD1_sR,MALD1,15351,575,words45,1,15351_45,884,TRUE,45,16487,strive,strYv,5,5,0,0,5,1,5,632,7,14,10,67,1355,113,4152261,6
surgery,MALD1_sR,MALD1,15351,616,words20,5,15351_20,757,TRUE,20,16748,surgery,sRJXi,1,1,0,1,0,3,5,534,7,2,0,1651,11501,2675,40026384,6
swing,MALD1_sR,MALD1,15351,628,words20,2,15351_20,749,TRUE,20,16824,swing,swIG,12,10,2,5,7,1,4,473,6,28,18,1325,6943,993,12736938,5
tan,MALD1_sR,MALD1,15351,355,words45,6,15351_45,647,TRUE,45,16959,tan,t@n,25,23,2,17,8,1,3,428,4,113,59,439,2512,197,9751642,4
tax,MALD1_sR,MALD1,15351,181,words20,2,15351_20,814,TRUE,20,17022,tax,t@ks,9,6,3,3,6,1,4,433,4,95,36,742,40830,15658,146911524,5
theory,MALD1_sR,MALD1,15351,637,words45,1,15351_45,632,TRUE,45,17221,theory,TIri,7,5,2,6,1,2,4,521,7,31,1,1459,23351,2194,50278307,5
toupee,MALD1_sR,MALD1,15351,278,words45,2,15351_45,720,TRUE,45,17534,toupee,tupe,1,1,0,1,0,2,4,589,5,9,0,64,94,14,101483,4
trample,MALD1_sR,MALD1,15351,232,words20,1,15351_20,844,TRUE,20,17586,trample,tr@mpL,2,0,2,0,2,2,7,544,8,8,4,41,142,22,527795,8
trash,MALD1_sR,MALD1,15351,167,words20,1,15351_20,708,TRUE,20,17648,trash,tr@S,7,6,1,4,3,1,4,466,6,26,8,1146,4581,809,7097772,5
twinge,MALD1_sR,MALD1,15351,451,words45,1,15351_45,1345,TRUE,45,17893,twinge,twInJ,2,0,2,1,1,1,5,589,5,6,4,26,357,18,97077,6
venture,MALD1_sR,MALD1,15351,498,words45,1,15351_45,904,TRUE,45,18416,venture,vEnCX,4,4,0,3,1,2,5,552,8,15,9,241,5378,494,15188993,6
were,MALD1_sR,MALD1,15351,567,words45,1,15351_45,757,TRUE,45,18904,were,wX,5,5,0,0,5,1,2,399,5,117,32,84804,691166,154071,570706296,3
wheat,MALD1_sR,MALD1,15351,531,words45,2,15351_45,697,TRUE,45,18921,wheat,hwit,9,8,1,3,6,1,3,359,6,97,6,293,4356,332,8685589,4
wove,MALD1_sR,MALD1,15351,383,words45,4,15351_45,640,TRUE,45,19186,wove,wov,12,11,1,8,4,1,3,430,5,24,15,12,341,10,198353,4
wren,MALD1_sR,MALD1,15351,700,words20,2,15351_20,1773,TRUE,20,19196,wren,rEn,26,22,4,18,8,1,3,313,5,138,17,19,944,13,1206315,4
yawl,MALD1_sR,MALD1,15351,59,words45,1,15351_45,972,TRUE,45,19246,yawl,ycl,16,15,1,14,2,1,3,448,4,66,5,12,41,0,59825,4
abuse,MALD1_sR,MALD1,15362,508,words23,1,15362_23,785,TRUE,23,96,abuse,xbyuz,2,2,0,2,0,2,5,531,6,1,6,523,16706,3916,36270050,6
aground,MALD1_sR,MALD1,15362,96,words23,2,15362_23,1967,TRUE,23,428,aground,xgrWnd,2,0,2,2,0,2,6,517,5,1,3,25,229,30,166844,4
any,MALD1_sR,MALD1,15362,162,words23,1,15362_23,922,TRUE,23,840,any,Eni,9,4,5,5,4,2,3,459,4,105,29,56068,219278,61618,710755610,4
babble,MALD1_sR,MALD1,15362,675,words23,6,15362_23,775,TRUE,23,1407,babble,b@bL,12,12,0,8,4,2,5,390,7,22,7,44,290,21,705693,6
bloater,MALD1_sR,MALD1,15362,92,words23,2,15362_23,1114,TRUE,23,1935,bloater,blotX,2,1,1,1,1,2,5,668,7,11,3,2,1,0,11706,5
butter,MALD1_sR,MALD1,15362,78,words23,3,15362_23,821,TRUE,23,2377,butter,b^tX,13,10,3,9,4,2,4,318,7,52,26,1042,10850,766,9727886,5
cliff,MALD1_sR,MALD1,15362,379,words23,2,15362_23,602,TRUE,23,3291,cliff,klIf,5,5,0,0,5,1,4,422,6,31,10,1100,3549,489,5900708,5
cockney,MALD1_sR,MALD1,15362,189,words23,2,15362_23,2455,TRUE,23,3376,cockney,kakni,1,0,1,0,1,2,5,413,5,12,4,18,112,17,233845,4
cold,MALD1_sR,MALD1,15362,415,words23,1,15362_23,822,TRUE,23,3432,cold,kold,15,11,4,10,5,1,4,408,5,76,29,6638,33636,4763,40844411,5
cutter,MALD1_sR,MALD1,15362,674,words23,5,15362_23,905,TRUE,23,4359,cutter,k^tX,12,9,3,9,3,2,4,350,7,51,19,239,1975,122,4273722,5
dumb,MALD1_sR,MALD1,15362,233,words23,1,15362_23,699,TRUE,23,5347,dumb,d^m,29,26,3,18,11,1,3,589,5,94,8,2395,2940,629,5413109,4
envy,MALD1_sR,MALD1,15362,99,words23,1,15362_23,752,TRUE,23,5746,envy,Envi,2,1,1,0,2,2,4,399,4,10,4,487,1754,219,2466070,5
eve,MALD1_sR,MALD1,15362,429,words23,2,15362_23,923,TRUE,23,5918,eve,iv,15,6,9,7,8,1,2,515,4,53,23,1437,5435,952,13243304,3
fable,MALD1_sR,MALD1,15362,411,words23,1,15362_23,972,TRUE,23,6143,fable,febL,11,10,1,9,2,2,5,484,6,31,15,20,397,34,1678751,6
feature,MALD1_sR,MALD1,15362,378,words23,1,15362_23,1311,TRUE,23,6284,feature,fiCX,2,2,0,0,2,2,4,477,8,17,2,298,9943,641,64289796,5
femur,MALD1_sR,MALD1,15362,72,words23,1,15362_23,1122,TRUE,23,6325,femur,fimX,3,3,0,1,2,2,4,419,4,31,3,58,283,20,446480,4
filling,MALD1_sR,MALD1,15362,580,words23,1,15362_23,1449,TRUE,23,6411,filling,fIlIG,6,5,1,6,0,2,5,470,8,43,14,494,6003,632,9103402,6
flurry,MALD1_sR,MALD1,15362,206,words23,5,15362_23,1604,TRUE,23,6594,flurry,flRi,3,1,2,1,2,2,4,507,6,21,6,24,909,119,610263,5
frozen,MALD1_sR,MALD1,15362,272,words23,1,15362_23,721,TRUE,23,6842,frozen,frozN,1,0,1,0,1,2,6,482,6,6,2,782,7718,719,9167199,5
gibbon,MALD1_sR,MALD1,15362,473,words23,1,15362_23,884,TRUE,23,7150,gibbon,gIb|n,2,1,1,1,1,2,5,363,7,22,4,12,121,20,481964,6
heap,MALD1_sR,MALD1,15362,633,words23,2,15362_23,1358,TRUE,23,7726,heap,hip,22,21,1,16,6,1,3,351,5,69,16,249,1373,89,2806006,4
hustle,MALD1_sR,MALD1,15362,431,words23,4,15362_23,1111,TRUE,23,8151,hustle,h^sL,8,8,0,5,3,2,5,421,7,35,7,402,700,120,1754467,6
ideal,MALD1_sR,MALD1,15362,651,words23,2,15362_23,1184,TRUE,23,8232,ideal,Ydil,3,1,2,1,2,2,4,503,6,17,4,374,8795,598,26049328,5
inspect,MALD1_sR,MALD1,15362,568,words23,1,15362_23,1074,TRUE,23,8916,inspect,InspEkt,2,1,1,1,1,2,7,538,8,4,2,130,1217,171,3286565,8
intern,MALD1_sR,MALD1,15362,457,words23,1,15362_23,735,TRUE,23,9041,intern,IntRn,5,1,4,1,4,2,5,488,7,8,2,232,981,113,3655396,6
jaw,MALD1_sR,MALD1,15362,91,words23,1,15362_23,1340,TRUE,23,9300,jaw,Jc,15,14,1,11,4,1,2,399,4,59,28,364,3227,239,2798439,3
keep,MALD1_sR,MALD1,15362,166,words23,5,15362_23,845,TRUE,23,9457,keep,kip,21,19,2,18,3,1,3,335,5,109,19,35846,85894,21749,119614141,4
latin,MALD1_sR,MALD1,15362,498,words23,3,15362_23,726,TRUE,23,9695,Latin,l@tN,8,6,2,7,1,2,5,357,6,57,14,561,9750,921,36551294,6
link,MALD1_sR,MALD1,15362,497,words23,2,15362_23,719,TRUE,23,9967,link,lIGk,17,10,7,14,3,1,4,330,5,58,41,609,9673,1333,240412757,5
medley,MALD1_sR,MALD1,15362,269,words23,1,15362_23,895,TRUE,23,10640,medley,mEdli,2,2,0,0,2,2,5,432,6,20,9,32,536,44,1717954,5
mighty,MALD1_sR,MALD1,15362,331,words23,3,15362_23,1044,TRUE,23,10811,mighty,mYti,2,1,1,0,2,2,4,649,6,28,4,1355,2408,261,7270974,5
okay,MALD1_sR,MALD1,15362,422,words23,1,15362_23,678,TRUE,23,11902,okay,oke,6,3,3,3,3,2,3,405,5,41,10,102320,24970,10346,15370861,4
overalls,MALD1_sR,MALD1,15362,102,words23,1,15362_23,917,TRUE,23,12165,overalls,ovXclz,1,0,1,0,1,3,6,534,8,2,2,52,479,11,616138,6
papa,MALD1_sR,MALD1,15362,406,words23,1,15362_23,828,TRUE,23,12361,papa,papx,4,3,1,0,4,2,4,338,5,25,17,2172,2732,120,4175779,5
plaque,MALD1_sR,MALD1,15362,781,words23,1,15362_23,638,TRUE,23,13106,plaque,pl@k,12,9,3,6,6,1,4,375,7,35,3,106,1211,82,3850588,5
pocket,MALD1_sR,MALD1,15362,237,words23,1,15362_23,653,TRUE,23,13198,pocket,pak|t,7,7,0,7,0,2,5,304,7,12,9,1821,10395,1017,38932393,6
rank,MALD1_sR,MALD1,15362,741,words23,1,15362_23,753,TRUE,23,14222,rank,r@Gk,20,10,10,16,4,1,4,373,5,57,36,433,5078,457,36409068,5
rib,MALD1_sR,MALD1,15362,757,words23,2,15362_23,775,TRUE,23,14796,rib,rIb,19,18,1,8,11,1,3,343,4,70,28,301,1322,121,2745230,4
ribbon,MALD1_sR,MALD1,15362,375,words23,1,15362_23,595,TRUE,23,14799,ribbon,rIb|n,2,2,0,2,0,2,5,320,7,31,3,258,2185,188,7950639,6
roof,MALD1_sR,MALD1,15362,326,words23,1,15362_23,656,TRUE,23,14909,roof,ruf,13,11,2,5,8,1,3,389,5,80,14,1818,8727,1142,14811067,4
rot,MALD1_sR,MALD1,15362,77,words23,2,15362_23,1186,TRUE,23,14928,rot,rat,29,26,3,25,4,1,3,405,4,122,50,394,1021,81,2043647,4
scalp,MALD1_sR,MALD1,15362,135,words23,1,15362_23,853,TRUE,23,15199,scalp,sk@lp,2,1,1,0,2,1,5,507,6,8,9,188,1216,110,1356840,6
scum,MALD1_sR,MALD1,15362,784,words23,4,15362_23,889,TRUE,23,15308,scum,sk^m,9,6,3,5,4,1,4,574,5,22,10,505,399,60,961366,5
sharp,MALD1_sR,MALD1,15362,528,words23,3,15362_23,982,TRUE,23,15534,sharp,Sarp,5,4,1,2,3,1,4,466,6,38,17,1213,11487,987,24906789,5
slush,MALD1_sR,MALD1,15362,600,words23,1,15362_23,998,TRUE,23,15845,slush,sl^S,10,9,1,4,6,1,4,569,6,16,8,28,319,39,389608,5
solely,MALD1_sR,MALD1,15362,503,words23,2,15362_23,1073,TRUE,23,15957,solely,soli,11,10,1,7,4,3,5,514,5,8,4,89,3477,301,10091700,4
stern,MALD1_sR,MALD1,15362,603,words23,4,15362_23,767,TRUE,23,16352,stern,stRn,10,5,5,4,6,1,4,507,6,29,11,327,3975,1003,4643904,5
stove,MALD1_sR,MALD1,15362,773,words23,1,15362_23,748,TRUE,23,16428,stove,stov,8,6,2,0,8,1,4,602,6,20,12,387,3105,170,3914849,5
stroll,MALD1_sR,MALD1,15362,687,words23,1,15362_23,853,TRUE,23,16494,stroll,strol,6,4,2,2,4,1,5,576,7,21,8,211,1337,66,1693118,6
taps,MALD1_sR,MALD1,15362,288,words23,1,15362_23,873,TRUE,23,16987,taps,t@ps,7,4,3,5,2,1,4,446,5,42,29,130,994,111,2690265,5
tepee,MALD1_sR,MALD1,15362,552,words23,2,15362_23,862,TRUE,23,17138,tepee,tipi,3,3,0,0,3,2,4,419,6,19,3,27,118,10,56962,5
trifle,MALD1_sR,MALD1,15362,496,words23,1,15362_23,982,TRUE,23,17714,trifle,trYfL,4,2,2,2,2,2,6,475,7,6,4,107,299,12,354770,7
twiddle,MALD1_sR,MALD1,15362,657,words23,2,15362_23,1258,TRUE,23,17887,twiddle,twIdL,1,1,0,1,0,2,6,357,7,6,2,15,17,3,75361,5
vinyl,MALD1_sR,MALD1,15362,106,words23,1,15362_23,1031,TRUE,23,18576,vinyl,vYnL,7,5,2,3,4,2,5,423,5,12,1,63,1072,65,17011205,5
weather,MALD1_sR,MALD1,15362,39,words23,2,15362_23,915,TRUE,23,18868,weather,wEDX,6,6,0,6,0,2,4,315,8,26,6,1746,16597,4207,103332440,5
wrench,MALD1_sR,MALD1,15362,553,words23,3,15362_23,722,TRUE,23,19197,wrench,rEnC,10,5,5,6,4,1,4,400,7,32,5,202,678,54,2044734,5
aloe,MALD1_sR,MALD1,15364,442,words29,1,15364_29,1064,TRUE,29,542,aloe,@lo,20,11,9,14,6,2,3,519,4,64,12,15,158,10,1897405,4
arrival,MALD1_sR,MALD1,15364,52,words29,1,15364_29,738,TRUE,29,1062,arrival,xrYvL,1,0,1,1,0,3,5,515,8,2,1,422,5131,518,15370734,6
attach,MALD1_sR,MALD1,15364,663,words29,1,15364_29,1498,TRUE,29,1235,attach,xt@C,1,1,0,0,1,2,4,518,7,4,2,126,1935,230,9444154,5
awful,MALD1_sR,MALD1,15364,413,words29,1,15364_29,1170,TRUE,29,1386,awful,cfL,4,3,1,1,3,2,4,362,6,9,1,3234,6138,2394,5217620,4
barber,MALD1_sR,MALD1,15364,411,words29,1,15364_29,779,TRUE,29,1534,barber,barbX,6,4,2,2,4,2,5,469,7,36,22,279,1653,337,4241984,6
baths,MALD1_sR,MALD1,15364,529,words29,1,15364_29,778,TRUE,29,1605,baths,b@Dz,2,2,0,1,1,1,4,466,6,14,12,161,802,58,5707960,4
berry,MALD1_sR,MALD1,15364,382,words29,1,15364_29,711,TRUE,29,1759,berry,bEri,13,10,3,7,6,2,4,374,6,144,23,178,2860,420,7552546,5
bilge,MALD1_sR,MALD1,15364,15,words29,1,15364_29,939,TRUE,29,1820,bilge,bIlJ,8,7,1,1,7,1,4,384,6,25,7,56,145,4,412304,4
bonus,MALD1_sR,MALD1,15364,122,words29,3,15364_29,774,TRUE,29,2047,bonus,bon|s,2,1,1,2,0,2,5,437,6,12,9,469,2857,321,27822012,6
cheeky,MALD1_sR,MALD1,15364,264,words29,2,15364_29,757,TRUE,29,3006,cheeky,Ciki,1,0,1,0,1,2,4,400,6,17,5,64,173,25,895925,4
coin,MALD1_sR,MALD1,15364,757,words29,1,15364_29,633,TRUE,29,3424,coin,kOn,14,13,1,11,3,1,3,339,5,87,20,497,2093,305,10097574,4
cork,MALD1_sR,MALD1,15364,247,words29,1,15364_29,782,TRUE,29,3960,cork,kork,11,9,2,4,7,1,4,410,5,80,24,146,802,53,5504784,5
cozy,MALD1_sR,MALD1,15364,47,words29,6,15364_29,835,TRUE,29,4104,cozy,kozi,5,5,0,4,1,2,4,400,5,47,11,288,1798,195,2331741,5
creepy,MALD1_sR,MALD1,15364,675,words29,2,15364_29,705,TRUE,29,4163,creepy,kripi,1,0,1,0,1,2,5,365,6,14,4,568,898,194,1697316,6
curt,MALD1_sR,MALD1,15364,500,words29,2,15364_29,939,TRUE,29,4333,curt,kRt,26,21,5,17,9,1,3,303,5,99,19,136,1162,120,1581069,4
defeat,MALD1_sR,MALD1,15364,655,words29,2,15364_29,1065,TRUE,29,4573,defeat,dxfit,1,1,0,1,0,2,5,438,7,4,3,580,5657,1293,6851628,6
demand,MALD1_sR,MALD1,15364,121,words29,2,15364_29,1038,TRUE,29,4640,demand,dxm@nd,1,1,0,1,0,2,6,540,7,4,5,873,16017,2368,44859061,7
dorm,MALD1_sR,MALD1,15364,738,words29,2,15364_29,879,TRUE,29,5194,dorm,dorm,5,4,1,3,2,1,4,446,5,38,16,369,1284,331,2037885,5
flounder,MALD1_sR,MALD1,15364,278,words29,2,15364_29,831,TRUE,29,6572,flounder,flWndX,1,0,1,1,0,2,6,592,9,3,2,43,323,12,588770,7
formal,MALD1_sR,MALD1,15364,116,words29,1,15364_29,1080,TRUE,29,6700,formal,formL,3,2,1,1,2,2,6,429,7,8,5,424,10117,844,22274656,7
geese,MALD1_sR,MALD1,15364,249,words29,3,15364_29,676,TRUE,29,7049,geese,gis,8,7,1,8,0,1,3,413,6,73,18,81,1006,94,1299115,4
given,MALD1_sR,MALD1,15364,383,words29,2,15364_29,766,TRUE,29,7181,given,gIvxn,1,1,0,1,0,2,5,345,6,23,16,4851,62622,11220,125544161,6
gourd,MALD1_sR,MALD1,15364,172,words29,1,15364_29,815,TRUE,29,7317,gourd,gord,16,14,2,10,6,1,4,389,6,51,3,24,355,7,502106,5
hid,MALD1_sR,MALD1,15364,45,words29,4,15364_29,790,TRUE,29,7883,hid,hId,25,23,2,15,10,1,3,368,4,63,30,596,1921,255,2213796,4
hung,MALD1_sR,MALD1,15364,136,words29,3,15364_29,844,TRUE,29,8129,hung,h^G,18,17,1,8,10,1,3,479,5,50,29,1436,8751,734,8543618,4
jumble,MALD1_sR,MALD1,15364,717,words29,1,15364_29,817,TRUE,29,9407,jumble,J^mbL,7,6,1,6,1,2,6,422,7,12,9,16,496,20,715330,7
knit,MALD1_sR,MALD1,15364,790,words29,3,15364_29,688,TRUE,29,9537,knit,nIt,28,27,1,22,6,1,3,325,5,85,11,97,1527,177,5113070,4
lighter,MALD1_sR,MALD1,15364,452,words29,5,15364_29,920,TRUE,29,9912,lighter,lYtX,14,12,2,8,6,2,4,401,8,57,11,457,3849,419,6287712,5
liking,MALD1_sR,MALD1,15364,696,words29,1,15364_29,731,TRUE,29,9925,liking,lYkIG,3,2,1,3,0,2,5,456,6,15,9,320,1044,181,1758841,4
lion,MALD1_sR,MALD1,15364,350,words29,1,15364_29,627,TRUE,29,9975,lion,lY|n,5,2,3,4,1,2,4,354,5,53,24,783,3327,441,11536320,5
loaf,MALD1_sR,MALD1,15364,146,words29,2,15364_29,689,TRUE,29,10047,loaf,lof,16,14,2,6,10,1,3,425,5,51,7,228,1330,112,1599779,4
loin,MALD1_sR,MALD1,15364,213,words29,2,15364_29,758,TRUE,29,10095,loin,lOn,11,11,0,9,2,1,3,388,5,57,20,18,332,17,543246,4
major,MALD1_sR,MALD1,15364,493,words29,3,15364_29,762,TRUE,29,10300,major,meJX,4,2,2,2,2,2,4,502,6,32,5,5343,61820,12480,122596391,5
meaning,MALD1_sR,MALD1,15364,230,words29,1,15364_29,784,TRUE,29,10602,meaning,minIG,1,1,0,1,0,2,5,414,8,9,6,1904,19142,2167,28821231,6
midday,MALD1_sR,MALD1,15364,406,words29,3,15364_29,645,TRUE,29,10795,midday,mIde,4,3,1,0,4,2,5,466,6,1,1,42,970,84,1059877,4
mink,MALD1_sR,MALD1,15364,657,words29,1,15364_29,802,TRUE,29,10879,mink,mIGk,13,11,2,11,2,1,4,329,5,58,35,189,435,58,1000653,5
mood,MALD1_sR,MALD1,15364,472,words29,1,15364_29,860,TRUE,29,11114,mood,mud,17,15,2,11,6,1,3,433,5,61,20,1736,8366,1333,11871925,4
pivot,MALD1_sR,MALD1,15364,178,words29,1,15364_29,721,TRUE,29,13070,pivot,pIvxt,4,3,1,4,0,2,5,235,6,7,3,23,647,98,1736745,6
plaster,MALD1_sR,MALD1,15364,793,words29,1,15364_29,916,TRUE,29,13109,plaster,pl@stX,5,2,3,2,3,2,6,503,8,12,9,134,1247,58,1811197,7
pointer,MALD1_sR,MALD1,15364,244,words29,3,15364_29,680,TRUE,29,13215,pointer,pOntX,1,0,1,0,1,2,5,501,8,14,11,55,927,56,11476769,6
puff,MALD1_sR,MALD1,15364,751,words29,8,15364_29,749,TRUE,29,13919,puff,p^f,14,14,0,7,7,1,3,549,5,36,14,227,1052,115,1897207,4
quail,MALD1_sR,MALD1,15364,737,words29,1,15364_29,781,TRUE,29,14055,quail,kwel,7,5,2,3,4,1,4,370,6,29,6,68,652,33,1278967,5
reduce,MALD1_sR,MALD1,15364,492,words29,2,15364_29,749,TRUE,29,14421,reduce,rIdus,4,3,1,3,1,2,5,501,7,5,9,219,19183,2508,39832456,6
remote,MALD1_sR,MALD1,15364,287,words29,3,15364_29,794,TRUE,29,14561,remote,rImot,2,1,1,1,1,2,5,464,7,3,3,713,7447,886,50689240,6
selves,MALD1_sR,MALD1,15364,548,words29,1,15364_29,962,TRUE,29,15386,selves,sElvz,2,1,1,2,0,1,5,628,6,19,9,62,895,52,1023898,5
shop,MALD1_sR,MALD1,15364,595,words29,1,15364_29,856,TRUE,29,15597,shop,Sap,16,15,1,12,4,1,3,384,5,96,20,2731,15046,1834,212807264,4
sliding,MALD1_sR,MALD1,15364,157,words29,1,15364_29,794,TRUE,29,15811,sliding,slYdIG,1,0,1,1,0,2,6,587,5,5,3,191,2829,213,4064583,5
small,MALD1_sR,MALD1,15364,769,words29,2,15364_29,803,TRUE,29,15849,small,smcl,5,4,1,2,3,1,4,537,6,19,10,6373,102490,12092,208378995,5
splash,MALD1_sR,MALD1,15364,357,words29,2,15364_29,730,TRUE,29,16141,splash,spl@S,2,0,2,2,0,1,5,568,7,4,2,215,1767,173,4049978,6
splice,MALD1_sR,MALD1,15364,80,words29,1,15364_29,1035,TRUE,29,16149,splice,splYs,2,0,2,1,1,1,5,718,7,3,4,20,88,12,1081416,6
squirm,MALD1_sR,MALD1,15364,576,words29,3,15364_29,864,TRUE,29,16234,squirm,skwRm,2,2,0,0,2,1,5,624,7,2,3,42,290,21,208497,6
stubby,MALD1_sR,MALD1,15364,322,words29,3,15364_29,763,TRUE,29,16515,stubby,st^bi,4,3,1,0,4,2,5,565,6,13,4,25,421,6,287176,5
sundae,MALD1_sR,MALD1,15364,87,words29,1,15364_29,831,TRUE,29,16683,sundae,s^nde,2,2,0,1,1,2,5,589,7,16,5,81,195,41,297154,6
taffy,MALD1_sR,MALD1,15364,422,words29,1,15364_29,898,TRUE,29,16930,taffy,t@fi,5,5,0,1,4,2,4,454,6,33,3,122,134,13,411033,5
tank,MALD1_sR,MALD1,15364,708,words29,1,15364_29,850,TRUE,29,16970,tank,t@Gk,16,11,5,11,5,1,4,327,5,48,29,1306,7358,1306,22073920,5
thy,MALD1_sR,MALD1,15364,457,words29,2,15364_29,1006,TRUE,29,17331,thy,DY,23,21,2,17,6,1,2,433,4,92,18,1243,899,131,10020384,3
thyme,MALD1_sR,MALD1,15364,158,words29,2,15364_29,580,TRUE,29,17332,thyme,tYm,21,19,2,11,10,1,3,348,5,32,3,10,1733,55,1007823,3
tongue,MALD1_sR,MALD1,15364,584,words29,1,15364_29,608,TRUE,29,17467,tongue,t^G,16,15,1,10,6,1,3,335,7,41,4,1589,6661,422,10002790,4
arrange,MALD1_sR,MALD1,15365,321,words19,1,15365_19,942,TRUE,19,1056,arrange,xrenJ,3,1,2,2,1,2,4,646,8,11,3,791,3162,243,7727860,5
assist,MALD1_sR,MALD1,15365,747,words19,2,15365_19,858,TRUE,19,1160,assist,xsIst,1,0,1,1,0,2,5,549,7,4,3,400,4926,445,29964870,6
buckle,MALD1_sR,MALD1,15365,533,words19,1,15365_19,1199,TRUE,19,2267,buckle,b^kL,6,5,1,3,3,2,5,372,7,32,13,257,1101,122,2898037,6
castor,MALD1_sR,MALD1,15365,78,words19,5,15365_19,1449,TRUE,19,2725,castor,k@stX,6,4,2,5,1,2,5,478,7,50,9,67,831,186,971100,6
circa,MALD1_sR,MALD1,15365,500,words19,1,15365_19,1006,TRUE,19,3179,circa,sRkx,1,1,0,0,1,2,4,419,6,21,1,35,785,22,3475462,5
common,MALD1_sR,MALD1,15365,180,words19,1,15365_19,767,TRUE,19,3539,common,kamxn,3,1,2,1,2,2,5,367,7,61,2,2275,39834,4956,107843433,6
cool,MALD1_sR,MALD1,15365,395,words19,2,15365_19,635,TRUE,19,3917,cool,kul,22,18,4,17,5,1,3,359,5,138,20,9990,20803,3155,56494542,4
cymbal,MALD1_sR,MALD1,15365,666,words19,1,15365_19,808,TRUE,19,4378,cymbal,sImbL,4,3,1,3,1,2,6,505,7,14,1,13,53,6,611557,7
diaper,MALD1_sR,MALD1,15365,108,words19,5,15365_19,776,TRUE,19,4854,diaper,dYpX,4,4,0,3,1,2,4,383,7,19,4,218,885,111,3933145,5
dove,MALD1_sR,MALD1,15365,335,words19,2,15365_19,1017,TRUE,19,5216,dove,dov,16,14,2,7,9,1,3,420,5,47,30,284,1708,117,3254883,4
frail,MALD1_sR,MALD1,15365,171,words19,1,15365_19,814,TRUE,19,6759,frail,frel,11,8,3,6,5,1,4,579,6,47,9,81,1090,119,703525,5
futile,MALD1_sR,MALD1,15365,547,words19,4,15365_19,1764,TRUE,19,6913,futile,fyutL,2,1,1,1,1,2,6,529,6,3,1,82,1052,94,956638,5
goat,MALD1_sR,MALD1,15365,589,words19,3,15365_19,679,TRUE,19,7260,goat,got,26,20,6,19,7,1,3,327,5,73,20,537,2377,145,5235987,4
golf,MALD1_sR,MALD1,15365,450,words19,1,15365_19,661,TRUE,19,7279,golf,g^lf,4,3,1,0,4,1,4,386,5,13,14,1302,11476,1441,88335035,5
grease,MALD1_sR,MALD1,15365,97,words19,2,15365_19,728,TRUE,19,7393,grease,gris,14,12,2,2,12,1,4,417,7,65,9,354,1692,120,3132383,5
hard,MALD1_sR,MALD1,15365,104,words19,1,15365_19,762,TRUE,19,7651,hard,hard,18,16,2,10,8,1,4,458,5,61,40,15700,81753,20615,130070107,5
holly,MALD1_sR,MALD1,15365,705,words19,8,15365_19,997,TRUE,19,7964,holly,hali,11,11,0,6,5,2,4,372,6,90,22,548,2508,454,6835563,5
hurtle,MALD1_sR,MALD1,15365,145,words19,2,15365_19,1401,TRUE,19,8143,hurtle,hRtL,6,5,1,4,2,2,5,314,6,26,6,1,54,0,48093,5
inert,MALD1_sR,MALD1,15365,764,words19,3,15365_19,843,TRUE,19,8702,inert,InRt,4,2,2,0,4,2,4,447,6,10,4,18,453,15,935898,5
jelly,MALD1_sR,MALD1,15365,647,words19,2,15365_19,1032,TRUE,19,9310,jelly,JEli,5,4,1,3,2,2,4,381,6,88,10,363,1635,176,3699680,5
leave,MALD1_sR,MALD1,15365,668,words19,1,15365_19,877,TRUE,19,9758,leave,liv,26,21,5,11,15,1,3,399,6,98,18,28596,45947,11722,70962325,4
limb,MALD1_sR,MALD1,15365,767,words19,1,15365_19,791,TRUE,19,9929,limb,lIm,20,17,3,11,9,1,3,333,5,87,14,238,2211,237,2360178,4
locker,MALD1_sR,MALD1,15365,699,words19,2,15365_19,689,TRUE,19,10070,locker,lakX,9,8,1,5,4,2,4,442,7,60,21,815,3030,447,3985812,5
mall,MALD1_sR,MALD1,15365,195,words19,2,15365_19,833,TRUE,19,10335,mall,mcl,24,20,4,20,4,1,3,374,5,114,39,964,4610,786,15177039,4
math,MALD1_sR,MALD1,15365,593,words19,7,15365_19,744,TRUE,19,10544,math,m@T,15,15,0,8,7,1,3,492,5,53,30,836,7192,1162,28636716,4
middle,MALD1_sR,MALD1,15365,111,words19,8,15365_19,620,TRUE,19,10797,middle,mIdL,12,11,1,7,5,2,5,387,7,45,11,4549,54702,13205,70166019,6
mosque,MALD1_sR,MALD1,15365,408,words19,2,15365_19,945,TRUE,19,11178,mosque,mask,4,3,1,2,2,1,4,461,7,19,2,60,2153,695,1969984,5
mountain,MALD1_sR,MALD1,15365,346,words19,1,15365_19,783,TRUE,19,11203,mountain,mWntN,2,1,1,1,1,2,6,507,9,7,2,1805,19965,1722,54172908,7
nod,MALD1_sR,MALD1,15365,525,words19,1,15365_19,828,TRUE,19,11601,nod,nad,20,15,5,12,8,1,3,459,4,68,27,203,2867,181,2193669,4
overly,MALD1_sR,MALD1,15365,94,words19,4,15365_19,872,TRUE,19,12192,overly,ovXli,3,1,2,0,3,3,5,514,7,12,8,113,2278,306,2372522,5
petty,MALD1_sR,MALD1,15365,773,words19,1,15365_19,682,TRUE,19,12845,petty,pEti,9,8,1,6,3,2,4,263,5,69,21,438,1977,394,3195594,5
phallus,MALD1_sR,MALD1,15365,631,words19,1,15365_19,919,TRUE,19,12855,phallus,f@lxs,5,5,0,5,0,2,5,586,6,23,0,5,90,6,133392,6
pillow,MALD1_sR,MALD1,15365,459,words19,1,15365_19,745,TRUE,19,13004,pillow,pIlo,5,4,1,3,2,2,4,395,7,43,5,581,2759,255,6272168,5
ratio,MALD1_sR,MALD1,15365,18,words19,4,15365_19,903,TRUE,19,14259,ratio,reSo,1,1,0,0,1,3,5,536,6,2,7,164,5065,213,26458226,6
shaft,MALD1_sR,MALD1,15365,650,words19,1,15365_19,850,TRUE,19,15514,shaft,S@ft,5,4,1,5,0,1,4,446,6,16,7,393,2247,134,6431597,5
shone,MALD1_sR,MALD1,15365,762,words19,1,15365_19,858,TRUE,19,15595,shone,Son,23,20,3,17,6,1,3,393,6,102,22,30,1252,18,709347,4
shrine,MALD1_sR,MALD1,15365,24,words19,1,15365_19,941,TRUE,19,15626,shrine,SrYn,5,4,1,3,2,1,4,619,7,24,7,151,1565,175,2302579,5
stance,MALD1_sR,MALD1,15365,605,words19,1,15365_19,1012,TRUE,19,16273,stance,st@ns,1,1,0,0,1,1,5,571,7,15,6,96,3464,394,3257959,6
stint,MALD1_sR,MALD1,15365,64,words19,2,15365_19,976,TRUE,19,16382,stint,stInt,3,2,1,2,1,1,5,526,6,14,12,38,1080,69,856043,6
stuck,MALD1_sR,MALD1,15365,739,words19,1,15365_19,888,TRUE,19,16517,stuck,st^k,16,11,5,3,13,1,4,557,6,45,16,3399,10094,1848,9120841,5
tart,MALD1_sR,MALD1,15365,359,words19,2,15365_19,817,TRUE,19,17000,tart,tart,14,8,6,9,5,1,4,322,5,37,30,122,1336,78,1363526,5
those,MALD1_sR,MALD1,15365,88,words19,1,15365_19,769,TRUE,19,17284,those,Doz,9,8,1,8,1,1,3,538,4,71,10,38404,244236,71088,270022703,3
throng,MALD1_sR,MALD1,15365,11,words19,1,15365_19,1127,TRUE,19,17311,throng,TrcG,4,2,2,3,1,1,4,653,7,8,3,16,471,24,330339,5
tight,MALD1_sR,MALD1,15365,752,words19,1,15365_19,974,TRUE,19,17353,tight,tYt,30,25,5,18,12,1,3,267,6,91,13,2597,11930,1415,17983507,4
triple,MALD1_sR,MALD1,15365,704,words19,7,15365_19,1062,TRUE,19,17732,triple,trIpL,5,2,3,3,2,2,6,509,7,14,9,479,3554,487,12479150,7
virgin,MALD1_sR,MALD1,15365,415,words19,2,15365_19,939,TRUE,19,18591,virgin,vRJ|n,3,3,0,3,0,2,5,503,7,9,4,961,4340,436,24410758,6
wing,MALD1_sR,MALD1,15365,96,words19,1,15365_19,894,TRUE,19,19075,wing,wIG,18,15,3,8,10,1,3,479,5,90,40,1032,8370,2064,17354423,4
yet,MALD1_sR,MALD1,15365,623,words19,3,15365_19,725,TRUE,19,19265,yet,yEt,15,15,0,12,3,1,3,395,4,51,29,17428,85871,16376,123166044,4
alto,MALD1_sR,MALD1,15366,30,words20,1,15366_20,1009,TRUE,20,571,alto,@lto,1,0,1,0,1,2,4,519,5,6,19,69,1476,100,6381409,5
baby,MALD1_sR,MALD1,15366,607,words20,3,15366_20,763,TRUE,20,1412,baby,bebi,5,4,1,3,2,2,4,372,5,55,17,25978,34012,8993,117716269,5
bias,MALD1_sR,MALD1,15366,699,words20,2,15366_20,1451,TRUE,20,1789,bias,bYxs,1,1,0,1,0,2,4,629,5,24,20,82,4418,640,8808565,5
briar,MALD1_sR,MALD1,15366,404,words20,1,15366_20,2860,TRUE,20,2182,briar,brYX,8,8,0,4,4,2,4,358,6,53,4,39,173,25,630788,5
cave,MALD1_sR,MALD1,15366,64,words20,1,15366_20,875,TRUE,20,2797,cave,kev,22,19,3,12,10,1,3,470,5,75,36,713,4364,413,7669404,4
corn,MALD1_sR,MALD1,15366,236,words20,1,15366_20,710,TRUE,20,3962,corn,korn,20,14,6,11,9,1,4,410,5,93,38,725,9077,780,10726347,5
council,MALD1_sR,MALD1,15366,517,words20,1,15366_20,838,TRUE,20,4041,council,kWnsL,2,2,0,2,0,2,6,514,8,14,1,863,24475,4431,112896752,7
curry,MALD1_sR,MALD1,15366,171,words20,1,15366_20,926,TRUE,20,4329,curry,kRi,14,10,4,5,9,2,3,409,6,106,18,124,2144,319,4030691,4
curve,MALD1_sR,MALD1,15366,133,words20,7,15366_20,688,TRUE,20,4338,curve,kRv,13,12,1,6,7,1,3,468,6,52,10,235,3929,424,11071742,4
dally,MALD1_sR,MALD1,15366,157,words20,3,15366_20,881,TRUE,20,4410,dally,d@li,14,13,1,13,1,2,4,499,5,80,24,39,100,2,142954,5
delete,MALD1_sR,MALD1,15366,776,words20,3,15366_20,803,TRUE,20,4616,delete,dxlit,2,1,1,2,0,2,5,403,7,13,5,90,496,56,33775852,6
fatal,MALD1_sR,MALD1,15366,290,words20,1,15366_20,720,TRUE,20,6253,fatal,fetL,7,5,2,3,4,2,5,360,6,9,7,362,3232,719,6786528,6
flunk,MALD1_sR,MALD1,15366,107,words20,1,15366_20,741,TRUE,20,6587,flunk,fl^Gk,6,3,3,4,2,1,5,335,6,14,10,92,81,22,81741,6
fudge,MALD1_sR,MALD1,15366,621,words20,2,15366_20,981,TRUE,20,6853,fudge,f^J,6,6,0,3,3,1,3,527,6,18,8,185,567,82,1969555,4
garb,MALD1_sR,MALD1,15366,357,words20,2,15366_20,655,TRUE,20,6997,garb,garb,4,2,2,1,3,1,4,394,5,28,26,16,469,37,614648,5
german,MALD1_sR,MALD1,15366,134,words20,8,15366_20,685,TRUE,20,7117,german,JRmxn,5,4,1,4,1,2,5,380,7,47,30,1624,15726,1764,53712683,6
gift,MALD1_sR,MALD1,15366,144,words20,1,15366_20,842,TRUE,20,7155,gift,gIft,5,5,0,4,1,1,4,596,5,19,10,3290,12214,1808,131428152,5
hack,MALD1_sR,MALD1,15366,130,words20,4,15366_20,1472,TRUE,20,7559,hack,h@k,30,27,3,17,13,1,3,412,5,129,34,436,928,91,6547946,4
hulk,MALD1_sR,MALD1,15366,120,words20,2,15366_20,784,TRUE,20,8096,hulk,h^lk,5,4,1,2,3,1,4,379,5,21,11,208,407,77,2113535,5
jewel,MALD1_sR,MALD1,15366,521,words20,2,15366_20,1012,TRUE,20,9326,jewel,JuL,6,5,1,2,4,1,3,619,6,70,5,369,1380,162,5603871,4
judge,MALD1_sR,MALD1,15366,257,words20,1,15366_20,559,TRUE,20,9388,judge,J^J,6,5,1,4,2,1,3,470,6,16,11,4063,26228,11590,30906773,4
landed,MALD1_sR,MALD1,15366,96,words20,1,15366_20,943,TRUE,20,9634,landed,l@nd|d,1,1,0,1,0,2,6,460,6,7,10,653,5458,892,3730816,6
lineal,MALD1_sR,MALD1,15366,367,words20,3,15366_20,944,TRUE,20,9951,lineal,lIniL,2,2,0,0,2,3,6,509,6,5,2,0,54,2,201862,6
lunch,MALD1_sR,MALD1,15366,34,words20,2,15366_20,686,TRUE,20,10184,lunch,l^nC,7,7,0,6,1,1,4,419,6,24,9,5310,12963,1530,20807697,5
mutton,MALD1_sR,MALD1,15366,754,words20,1,15366_20,2009,TRUE,20,11323,mutton,m^tN,4,3,1,2,2,2,5,579,5,24,10,40,157,4,389582,5
pill,MALD1_sR,MALD1,15366,580,words20,1,15366_20,915,TRUE,20,12998,pill,pIl,36,32,4,25,11,1,3,325,5,114,32,603,2625,802,12755636,4
plum,MALD1_sR,MALD1,15366,28,words20,1,15366_20,724,TRUE,20,13168,plum,pl^m,10,7,3,3,7,1,4,416,5,34,16,174,1375,118,2962013,5
ring,MALD1_sR,MALD1,15366,496,words20,1,15366_20,731,TRUE,20,14838,ring,rIG,23,21,2,11,12,1,3,509,5,82,39,4730,12222,1864,54346434,4
scratch,MALD1_sR,MALD1,15366,492,words20,1,15366_20,890,TRUE,20,15277,scratch,skr@C,2,2,0,0,2,1,5,606,8,7,1,961,2826,410,7458884,6
shaven,MALD1_sR,MALD1,15366,160,words20,2,15366_20,807,TRUE,20,15538,shaven,Sevxn,2,2,0,2,0,2,5,464,6,14,7,10,318,25,411865,5
shun,MALD1_sR,MALD1,15366,129,words20,3,15366_20,825,TRUE,20,15640,shun,S^n,19,18,1,15,4,1,3,426,5,106,21,26,447,39,733434,4
skit,MALD1_sR,MALD1,15366,240,words20,1,15366_20,875,TRUE,20,15764,skit,skIt,14,12,2,4,10,1,4,479,5,33,15,42,217,74,629356,5
solar,MALD1_sR,MALD1,15366,623,words20,1,15366_20,2408,TRUE,20,15951,solar,solX,13,11,2,7,6,2,4,499,6,89,15,236,9611,875,20427276,4
steam,MALD1_sR,MALD1,15366,570,words20,1,15366_20,1536,TRUE,20,16321,steam,stim,8,5,3,3,5,1,4,484,6,39,13,686,4303,462,11148945,5
sterile,MALD1_sR,MALD1,15366,82,words20,2,15366_20,1057,TRUE,20,16346,sterile,stErL,1,0,1,0,1,2,6,577,7,12,1,111,1028,101,2004265,7
surgery,MALD1_sR,MALD1,15366,74,words20,1,15366_20,913,TRUE,20,16748,surgery,sRJXi,1,1,0,1,0,3,5,534,7,2,0,1651,11501,2675,40026384,6
swing,MALD1_sR,MALD1,15366,772,words20,2,15366_20,1500,TRUE,20,16824,swing,swIG,12,10,2,5,7,1,4,473,6,28,18,1325,6943,993,12736938,5
tax,MALD1_sR,MALD1,15366,324,words20,1,15366_20,830,TRUE,20,17022,tax,t@ks,9,6,3,3,6,1,4,433,4,95,36,742,40830,15658,146911524,5
trample,MALD1_sR,MALD1,15366,300,words20,1,15366_20,691,TRUE,20,17586,trample,tr@mpL,2,0,2,0,2,2,7,544,8,8,4,41,142,22,527795,8
trash,MALD1_sR,MALD1,15366,739,words20,1,15366_20,707,TRUE,20,17648,trash,tr@S,7,6,1,4,3,1,4,466,6,26,8,1146,4581,809,7097772,5
weeny,MALD1_sR,MALD1,15366,15,words20,1,15366_20,1141,TRUE,20,18884,weeny,wini,5,4,1,3,2,2,4,398,4,53,6,8,21,6,58568,4
wren,MALD1_sR,MALD1,15366,742,words20,4,15366_20,1903,TRUE,20,19196,wren,rEn,26,22,4,18,8,1,3,313,5,138,17,19,944,13,1206315,4
abreast,MALD1_sR,MALD1,15367,9,words19,1,15367_19,995,TRUE,19,68,abreast,xbrEst,2,0,2,2,0,2,6,828,5,6,1,26,344,26,758922,4
arrange,MALD1_sR,MALD1,15367,731,words19,1,15367_19,775,TRUE,19,1056,arrange,xrenJ,3,1,2,2,1,2,4,646,8,11,3,791,3162,243,7727860,5
assist,MALD1_sR,MALD1,15367,122,words19,1,15367_19,728,TRUE,19,1160,assist,xsIst,1,0,1,1,0,2,5,549,7,4,3,400,4926,445,29964870,6
buckle,MALD1_sR,MALD1,15367,752,words19,2,15367_19,664,TRUE,19,2267,buckle,b^kL,6,5,1,3,3,2,5,372,7,32,13,257,1101,122,2898037,6
castor,MALD1_sR,MALD1,15367,798,words19,2,15367_19,781,TRUE,19,2725,castor,k@stX,6,4,2,5,1,2,5,478,7,50,9,67,831,186,971100,6
circa,MALD1_sR,MALD1,15367,350,words19,3,15367_19,1173,TRUE,19,3179,circa,sRkx,1,1,0,0,1,2,4,419,6,21,1,35,785,22,3475462,5
common,MALD1_sR,MALD1,15367,239,words19,1,15367_19,697,TRUE,19,3539,common,kamxn,3,1,2,1,2,2,5,367,7,61,2,2275,39834,4956,107843433,6
cool,MALD1_sR,MALD1,15367,124,words19,1,15367_19,571,TRUE,19,3917,cool,kul,22,18,4,17,5,1,3,359,5,138,20,9990,20803,3155,56494542,4
cymbal,MALD1_sR,MALD1,15367,328,words19,2,15367_19,699,TRUE,19,4378,cymbal,sImbL,4,3,1,3,1,2,6,505,7,14,1,13,53,6,611557,7
diaper,MALD1_sR,MALD1,15367,192,words19,2,15367_19,677,TRUE,19,4854,diaper,dYpX,4,4,0,3,1,2,4,383,7,19,4,218,885,111,3933145,5
dove,MALD1_sR,MALD1,15367,778,words19,1,15367_19,920,TRUE,19,5216,dove,dov,16,14,2,7,9,1,3,420,5,47,30,284,1708,117,3254883,4
duly,MALD1_sR,MALD1,15367,786,words19,2,15367_19,896,TRUE,19,5345,duly,duli,9,9,0,8,1,2,4,529,4,69,14,69,467,58,2823211,4
frail,MALD1_sR,MALD1,15367,210,words19,1,15367_19,785,TRUE,19,6759,frail,frel,11,8,3,6,5,1,4,579,6,47,9,81,1090,119,703525,5
futile,MALD1_sR,MALD1,15367,406,words19,1,15367_19,772,TRUE,19,6913,futile,fyutL,2,1,1,1,1,2,6,529,6,3,1,82,1052,94,956638,5
goat,MALD1_sR,MALD1,15367,470,words19,3,15367_19,808,TRUE,19,7260,goat,got,26,20,6,19,7,1,3,327,5,73,20,537,2377,145,5235987,4
golf,MALD1_sR,MALD1,15367,398,words19,2,15367_19,643,TRUE,19,7279,golf,g^lf,4,3,1,0,4,1,4,386,5,13,14,1302,11476,1441,88335035,5
grease,MALD1_sR,MALD1,15367,782,words19,3,15367_19,607,TRUE,19,7393,grease,gris,14,12,2,2,12,1,4,417,7,65,9,354,1692,120,3132383,5
hard,MALD1_sR,MALD1,15367,319,words19,1,15367_19,646,TRUE,19,7651,hard,hard,18,16,2,10,8,1,4,458,5,61,40,15700,81753,20615,130070107,5
heal,MALD1_sR,MALD1,15367,6,words19,2,15367_19,774,TRUE,19,7724,heal,hil,29,26,3,23,6,1,3,370,5,154,28,578,2422,556,3771118,4
holly,MALD1_sR,MALD1,15367,723,words19,1,15367_19,716,TRUE,19,7964,holly,hali,11,11,0,6,5,2,4,372,6,90,22,548,2508,454,6835563,5
hurtle,MALD1_sR,MALD1,15367,154,words19,1,15367_19,635,TRUE,19,8143,hurtle,hRtL,6,5,1,4,2,2,5,314,6,26,6,1,54,0,48093,5
inert,MALD1_sR,MALD1,15367,324,words19,4,15367_19,1071,TRUE,19,8702,inert,InRt,4,2,2,0,4,2,4,447,6,10,4,18,453,15,935898,5
jelly,MALD1_sR,MALD1,15367,200,words19,2,15367_19,681,TRUE,19,9310,jelly,JEli,5,4,1,3,2,2,4,381,6,88,10,363,1635,176,3699680,5
leave,MALD1_sR,MALD1,15367,89,words19,2,15367_19,664,TRUE,19,9758,leave,liv,26,21,5,11,15,1,3,399,6,98,18,28596,45947,11722,70962325,4
limb,MALD1_sR,MALD1,15367,276,words19,2,15367_19,605,TRUE,19,9929,limb,lIm,20,17,3,11,9,1,3,333,5,87,14,238,2211,237,2360178,4
locker,MALD1_sR,MALD1,15367,384,words19,1,15367_19,677,TRUE,19,10070,locker,lakX,9,8,1,5,4,2,4,442,7,60,21,815,3030,447,3985812,5
mall,MALD1_sR,MALD1,15367,372,words19,3,15367_19,589,TRUE,19,10335,mall,mcl,24,20,4,20,4,1,3,374,5,114,39,964,4610,786,15177039,4
math,MALD1_sR,MALD1,15367,549,words19,1,15367_19,817,TRUE,19,10544,math,m@T,15,15,0,8,7,1,3,492,5,53,30,836,7192,1162,28636716,4
middle,MALD1_sR,MALD1,15367,235,words19,1,15367_19,540,TRUE,19,10797,middle,mIdL,12,11,1,7,5,2,5,387,7,45,11,4549,54702,13205,70166019,6
mosque,MALD1_sR,MALD1,15367,478,words19,1,15367_19,785,TRUE,19,11178,mosque,mask,4,3,1,2,2,1,4,461,7,19,2,60,2153,695,1969984,5
mountain,MALD1_sR,MALD1,15367,371,words19,2,15367_19,780,TRUE,19,11203,mountain,mWntN,2,1,1,1,1,2,6,507,9,7,2,1805,19965,1722,54172908,7
nod,MALD1_sR,MALD1,15367,175,words19,1,15367_19,807,TRUE,19,11601,nod,nad,20,15,5,12,8,1,3,459,4,68,27,203,2867,181,2193669,4
overly,MALD1_sR,MALD1,15367,568,words19,3,15367_19,684,TRUE,19,12192,overly,ovXli,3,1,2,0,3,3,5,514,7,12,8,113,2278,306,2372522,5
petty,MALD1_sR,MALD1,15367,531,words19,5,15367_19,615,TRUE,19,12845,petty,pEti,9,8,1,6,3,2,4,263,5,69,21,438,1977,394,3195594,5
pillow,MALD1_sR,MALD1,15367,168,words19,1,15367_19,624,TRUE,19,13004,pillow,pIlo,5,4,1,3,2,2,4,395,7,43,5,581,2759,255,6272168,5
ratio,MALD1_sR,MALD1,15367,111,words19,1,15367_19,750,TRUE,19,14259,ratio,reSo,1,1,0,0,1,3,5,536,6,2,7,164,5065,213,26458226,6
shaft,MALD1_sR,MALD1,15367,417,words19,5,15367_19,699,TRUE,19,15514,shaft,S@ft,5,4,1,5,0,1,4,446,6,16,7,393,2247,134,6431597,5
shone,MALD1_sR,MALD1,15367,102,words19,2,15367_19,1162,TRUE,19,15595,shone,Son,23,20,3,17,6,1,3,393,6,102,22,30,1252,18,709347,4
shrine,MALD1_sR,MALD1,15367,340,words19,1,15367_19,832,TRUE,19,15626,shrine,SrYn,5,4,1,3,2,1,4,619,7,24,7,151,1565,175,2302579,5
stance,MALD1_sR,MALD1,15367,343,words19,1,15367_19,730,TRUE,19,16273,stance,st@ns,1,1,0,0,1,1,5,571,7,15,6,96,3464,394,3257959,6
stint,MALD1_sR,MALD1,15367,748,words19,2,15367_19,1331,TRUE,19,16382,stint,stInt,3,2,1,2,1,1,5,526,6,14,12,38,1080,69,856043,6
stuck,MALD1_sR,MALD1,15367,604,words19,3,15367_19,808,TRUE,19,16517,stuck,st^k,16,11,5,3,13,1,4,557,6,45,16,3399,10094,1848,9120841,5
tart,MALD1_sR,MALD1,15367,563,words19,2,15367_19,801,TRUE,19,17000,tart,tart,14,8,6,9,5,1,4,322,5,37,30,122,1336,78,1363526,5
those,MALD1_sR,MALD1,15367,494,words19,1,15367_19,636,TRUE,19,17284,those,Doz,9,8,1,8,1,1,3,538,4,71,10,38404,244236,71088,270022703,3
throng,MALD1_sR,MALD1,15367,345,words19,3,15367_19,1439,TRUE,19,17311,throng,TrcG,4,2,2,3,1,1,4,653,7,8,3,16,471,24,330339,5
tight,MALD1_sR,MALD1,15367,458,words19,1,15367_19,648,TRUE,19,17353,tight,tYt,30,25,5,18,12,1,3,267,6,91,13,2597,11930,1415,17983507,4
tonal,MALD1_sR,MALD1,15367,689,words19,1,15367_19,725,TRUE,19,17462,tonal,tonL,5,3,2,3,2,2,5,469,6,9,4,3,431,14,707113,4
triple,MALD1_sR,MALD1,15367,621,words19,1,15367_19,709,TRUE,19,17732,triple,trIpL,5,2,3,3,2,2,6,509,7,14,9,479,3554,487,12479150,7
virgin,MALD1_sR,MALD1,15367,486,words19,3,15367_19,870,TRUE,19,18591,virgin,vRJ|n,3,3,0,3,0,2,5,503,7,9,4,961,4340,436,24410758,6
wing,MALD1_sR,MALD1,15367,353,words19,1,15367_19,650,TRUE,19,19075,wing,wIG,18,15,3,8,10,1,3,479,5,90,40,1032,8370,2064,17354423,4
yet,MALD1_sR,MALD1,15367,159,words19,2,15367_19,650,TRUE,19,19265,yet,yEt,15,15,0,12,3,1,3,395,4,51,29,17428,85871,16376,123166044,4
abuse,MALD1_sR,MALD1,15373,436,words23,2,15373_23,941,TRUE,23,96,abuse,xbyuz,2,2,0,2,0,2,5,531,6,1,6,523,16706,3916,36270050,6
adjourn,MALD1_sR,MALD1,15373,304,words23,10,15373_23,1238,TRUE,23,248,adjourn,xJRn,1,1,0,0,1,2,4,576,8,6,1,66,82,26,957864,5
aground,MALD1_sR,MALD1,15373,48,words23,4,15373_23,2121,TRUE,23,428,aground,xgrWnd,2,0,2,2,0,2,6,517,5,1,3,25,229,30,166844,4
any,MALD1_sR,MALD1,15373,535,words23,1,15373_23,909,TRUE,23,840,any,Eni,9,4,5,5,4,2,3,459,4,105,29,56068,219278,61618,710755610,4
babble,MALD1_sR,MALD1,15373,252,words23,2,15373_23,841,TRUE,23,1407,babble,b@bL,12,12,0,8,4,2,5,390,7,22,7,44,290,21,705693,6
bloater,MALD1_sR,MALD1,15373,123,words23,5,15373_23,1083,TRUE,23,1935,bloater,blotX,2,1,1,1,1,2,5,668,7,11,3,2,1,0,11706,5
branch,MALD1_sR,MALD1,15373,703,words23,1,15373_23,708,TRUE,23,2140,branch,br@nC,5,3,2,3,2,1,5,529,7,18,9,514,7650,982,36712567,6
butter,MALD1_sR,MALD1,15373,515,words23,1,15373_23,705,TRUE,23,2377,butter,b^tX,13,10,3,9,4,2,4,318,7,52,26,1042,10850,766,9727886,5
cliff,MALD1_sR,MALD1,15373,650,words23,1,15373_23,730,TRUE,23,3291,cliff,klIf,5,5,0,0,5,1,4,422,6,31,10,1100,3549,489,5900708,5
cold,MALD1_sR,MALD1,15373,91,words23,1,15373_23,772,TRUE,23,3432,cold,kold,15,11,4,10,5,1,4,408,5,76,29,6638,33636,4763,40844411,5
cutter,MALD1_sR,MALD1,15373,153,words23,3,15373_23,1033,TRUE,23,4359,cutter,k^tX,12,9,3,9,3,2,4,350,7,51,19,239,1975,122,4273722,5
dumb,MALD1_sR,MALD1,15373,714,words23,4,15373_23,916,TRUE,23,5347,dumb,d^m,29,26,3,18,11,1,3,589,5,94,8,2395,2940,629,5413109,4
envy,MALD1_sR,MALD1,15373,105,words23,1,15373_23,753,TRUE,23,5746,envy,Envi,2,1,1,0,2,2,4,399,4,10,4,487,1754,219,2466070,5
eve,MALD1_sR,MALD1,15373,186,words23,3,15373_23,969,TRUE,23,5918,eve,iv,15,6,9,7,8,1,2,515,4,53,23,1437,5435,952,13243304,3
fable,MALD1_sR,MALD1,15373,675,words23,1,15373_23,1028,TRUE,23,6143,fable,febL,11,10,1,9,2,2,5,484,6,31,15,20,397,34,1678751,6
feature,MALD1_sR,MALD1,15373,690,words23,3,15373_23,765,TRUE,23,6284,feature,fiCX,2,2,0,0,2,2,4,477,8,17,2,298,9943,641,64289796,5
femur,MALD1_sR,MALD1,15373,424,words23,2,15373_23,943,TRUE,23,6325,femur,fimX,3,3,0,1,2,2,4,419,4,31,3,58,283,20,446480,4
filling,MALD1_sR,MALD1,15373,320,words23,7,15373_23,1089,TRUE,23,6411,filling,fIlIG,6,5,1,6,0,2,5,470,8,43,14,494,6003,632,9103402,6
flurry,MALD1_sR,MALD1,15373,10,words23,1,15373_23,893,TRUE,23,6594,flurry,flRi,3,1,2,1,2,2,4,507,6,21,6,24,909,119,610263,5
frozen,MALD1_sR,MALD1,15373,192,words23,1,15373_23,798,TRUE,23,6842,frozen,frozN,1,0,1,0,1,2,6,482,6,6,2,782,7718,719,9167199,5
gibbon,MALD1_sR,MALD1,15373,739,words23,2,15373_23,1517,TRUE,23,7150,gibbon,gIb|n,2,1,1,1,1,2,5,363,7,22,4,12,121,20,481964,6
heap,MALD1_sR,MALD1,15373,609,words23,3,15373_23,990,TRUE,23,7726,heap,hip,22,21,1,16,6,1,3,351,5,69,16,249,1373,89,2806006,4
hustle,MALD1_sR,MALD1,15373,177,words23,2,15373_23,1095,TRUE,23,8151,hustle,h^sL,8,8,0,5,3,2,5,421,7,35,7,402,700,120,1754467,6
ideal,MALD1_sR,MALD1,15373,744,words23,1,15373_23,874,TRUE,23,8232,ideal,Ydil,3,1,2,1,2,2,4,503,6,17,4,374,8795,598,26049328,5
inspect,MALD1_sR,MALD1,15373,360,words23,1,15373_23,1058,TRUE,23,8916,inspect,InspEkt,2,1,1,1,1,2,7,538,8,4,2,130,1217,171,3286565,8
intern,MALD1_sR,MALD1,15373,365,words23,1,15373_23,871,TRUE,23,9041,intern,IntRn,5,1,4,1,4,2,5,488,7,8,2,232,981,113,3655396,6
jaw,MALD1_sR,MALD1,15373,226,words23,3,15373_23,859,TRUE,23,9300,jaw,Jc,15,14,1,11,4,1,2,399,4,59,28,364,3227,239,2798439,3
keep,MALD1_sR,MALD1,15373,25,words23,1,15373_23,686,TRUE,23,9457,keep,kip,21,19,2,18,3,1,3,335,5,109,19,35846,85894,21749,119614141,4
latin,MALD1_sR,MALD1,15373,319,words23,6,15373_23,803,TRUE,23,9695,Latin,l@tN,8,6,2,7,1,2,5,357,6,57,14,561,9750,921,36551294,6
link,MALD1_sR,MALD1,15373,717,words23,1,15373_23,708,TRUE,23,9967,link,lIGk,17,10,7,14,3,1,4,330,5,58,41,609,9673,1333,240412757,5
medley,MALD1_sR,MALD1,15373,174,words23,1,15373_23,824,TRUE,23,10640,medley,mEdli,2,2,0,0,2,2,5,432,6,20,9,32,536,44,1717954,5
mighty,MALD1_sR,MALD1,15373,544,words23,2,15373_23,1117,TRUE,23,10811,mighty,mYti,2,1,1,0,2,2,4,649,6,28,4,1355,2408,261,7270974,5
mirth,MALD1_sR,MALD1,15373,367,words23,1,15373_23,894,TRUE,23,10898,mirth,mRT,13,11,2,10,3,1,3,484,5,55,10,11,211,12,387672,4
okay,MALD1_sR,MALD1,15373,149,words23,2,15373_23,805,TRUE,23,11902,okay,oke,6,3,3,3,3,2,3,405,5,41,10,102320,24970,10346,15370861,4
overalls,MALD1_sR,MALD1,15373,505,words23,3,15373_23,1182,TRUE,23,12165,overalls,ovXclz,1,0,1,0,1,3,6,534,8,2,2,52,479,11,616138,6
papa,MALD1_sR,MALD1,15373,197,words23,1,15373_23,815,TRUE,23,12361,papa,papx,4,3,1,0,4,2,4,338,5,25,17,2172,2732,120,4175779,5
plaque,MALD1_sR,MALD1,15373,227,words23,4,15373_23,794,TRUE,23,13106,plaque,pl@k,12,9,3,6,6,1,4,375,7,35,3,106,1211,82,3850588,5
pocket,MALD1_sR,MALD1,15373,470,words23,1,15373_23,1251,TRUE,23,13198,pocket,pak|t,7,7,0,7,0,2,5,304,7,12,9,1821,10395,1017,38932393,6
rank,MALD1_sR,MALD1,15373,661,words23,1,15373_23,739,TRUE,23,14222,rank,r@Gk,20,10,10,16,4,1,4,373,5,57,36,433,5078,457,36409068,5
rib,MALD1_sR,MALD1,15373,391,words23,1,15373_23,775,TRUE,23,14796,rib,rIb,19,18,1,8,11,1,3,343,4,70,28,301,1322,121,2745230,4
ribbon,MALD1_sR,MALD1,15373,72,words23,2,15373_23,1052,TRUE,23,14799,ribbon,rIb|n,2,2,0,2,0,2,5,320,7,31,3,258,2185,188,7950639,6
roof,MALD1_sR,MALD1,15373,384,words23,2,15373_23,840,TRUE,23,14909,roof,ruf,13,11,2,5,8,1,3,389,5,80,14,1818,8727,1142,14811067,4
rot,MALD1_sR,MALD1,15373,257,words23,2,15373_23,1068,TRUE,23,14928,rot,rat,29,26,3,25,4,1,3,405,4,122,50,394,1021,81,2043647,4
scalp,MALD1_sR,MALD1,15373,386,words23,4,15373_23,1098,TRUE,23,15199,scalp,sk@lp,2,1,1,0,2,1,5,507,6,8,9,188,1216,110,1356840,6
scum,MALD1_sR,MALD1,15373,504,words23,2,15373_23,1040,TRUE,23,15308,scum,sk^m,9,6,3,5,4,1,4,574,5,22,10,505,399,60,961366,5
sharp,MALD1_sR,MALD1,15373,361,words23,2,15373_23,992,TRUE,23,15534,sharp,Sarp,5,4,1,2,3,1,4,466,6,38,17,1213,11487,987,24906789,5
slush,MALD1_sR,MALD1,15373,354,words23,2,15373_23,995,TRUE,23,15845,slush,sl^S,10,9,1,4,6,1,4,569,6,16,8,28,319,39,389608,5
