Item,Experiment,Release,Subject,Trial,List,WordRunLength,ExperimentRunID,RT,ACC,Session,lower,idx,ortho,phono,all,replace,delete_insert,pos_l50,pos_m50,Item,NumSylls,NumPhones,Duration,OrthUP,PhonND,OrthND,FreqSUBTLEX,FreqCOCA,FreqCOCAspok,FreqGoogle,PhonUP,NumMorphs
brink,MALD1_sR,MALD1,15292,710,words38,1,15292_38,753,TRUE,38,brink,2202,brink,brIGk,8,5,3,5,3,brink,1,5,385,6,23,16,127,1557,437,1485388,6,1
candle,MALD1_sR,MALD1,15292,312,words38,1,15292_38,654,TRUE,38,candle,2530,candle,k@ndL,11,9,2,6,5,candle,2,6,414,7,44,13,409,1978,202,10193814,7,1
chaser,MALD1_sR,MALD1,15292,642,words38,2,15292_38,960,TRUE,38,chaser,2974,chaser,CesX,5,4,1,1,4,chaser,2,4,454,7,17,9,66,209,48,1668181,5,2
cope,MALD1_sR,MALD1,15292,392,words38,2,15292_38,832,TRUE,38,cope,3930,cope,kop,25,23,2,16,9,cope,1,3,309,5,86,34,166,3545,507,5172385,4,1
crank,MALD1_sR,MALD1,15292,726,words38,2,15292_38,639,TRUE,38,crank,4122,crank,kr@Gk,8,5,3,6,2,crank,1,5,389,6,27,13,272,1104,114,2185694,6,1
craze,MALD1_sR,MALD1,15292,154,words38,1,15292_38,725,TRUE,38,craze,4140,craze,krez,11,9,2,5,6,craze,1,4,539,6,81,11,52,590,85,967820,5,1
dime,MALD1_sR,MALD1,15292,501,words38,1,15292_38,749,TRUE,38,dime,4914,dime,dYm,20,19,1,12,8,dime,1,3,387,5,74,24,615,1594,422,1910001,4,1
dub,MALD1_sR,MALD1,15292,554,words38,1,15292_38,876,TRUE,38,dub,5320,dub,d^b,22,20,2,12,10,dub,1,3,280,4,64,34,55,234,18,4026648,4,1
duke,MALD1_sR,MALD1,15292,119,words38,7,15292_38,1277,TRUE,38,duke,5339,duke,duk,16,14,2,6,10,duke,1,3,312,5,88,25,1277,6455,1478,12251478,4,1
faint,MALD1_sR,MALD1,15292,728,words38,4,15292_38,650,TRUE,38,faint,6176,faint,fent,7,5,2,5,2,faint,1,4,412,6,26,9,473,3679,131,2567484,5,1
fleet,MALD1_sR,MALD1,15292,232,words38,1,15292_38,755,TRUE,38,fleet,6527,fleet,flit,16,13,3,7,9,fleet,1,4,503,6,36,11,540,3583,395,10364760,5,1
flicker,MALD1_sR,MALD1,15292,488,words38,2,15292_38,933,TRUE,38,flicker,6537,flicker,flIkX,5,3,2,2,3,flicker,2,5,472,8,18,8,35,805,34,814398,6,2
good,MALD1_sR,MALD1,15292,636,words38,3,15292_38,757,TRUE,38,good,7288,good,gUd,12,10,2,10,2,good,1,3,284,5,28,23,133117,236132,85425,365822878,4,1
halt,MALD1_sR,MALD1,15292,762,words38,3,15292_38,727,TRUE,38,halt,7602,halt,hclt,8,6,2,5,3,halt,1,4,366,5,38,26,575,2938,431,2950802,5,1
kitten,MALD1_sR,MALD1,15292,786,words38,2,15292_38,753,TRUE,38,kitten,9519,kitten,kItN,7,6,1,5,2,kitten,2,5,359,7,52,6,241,574,60,3052310,6,1
lancer,MALD1_sR,MALD1,15292,33,words38,1,15292_38,927,TRUE,38,lancer,9630,lancer,l@nsX,3,1,2,2,1,lancer,2,5,668,7,19,14,22,89,14,1096622,6,2
log,MALD1_sR,MALD1,15292,193,words38,2,15292_38,732,TRUE,38,log,10083,log,lcg,13,12,1,8,5,log,1,3,401,4,46,42,610,4672,509,111172980,4,1
mat,MALD1_sR,MALD1,15292,507,words38,2,15292_38,782,TRUE,38,mat,10532,mat,m@t,30,27,3,21,9,mat,1,3,364,4,94,61,178,1998,137,9947887,4,1
may,MALD1_sR,MALD1,15292,425,words38,2,15292_38,585,TRUE,38,may,10579,may,me,32,23,9,15,17,may,1,2,385,4,161,60,26080,232650,41170,827841285,3,1
minute,MALD1_sR,MALD1,15292,49,words38,2,15292_38,993,TRUE,38,minute,10889,minute,mIn|t,4,3,1,3,1,minute,2,5,494,7,4,2,19252,26841,8141,41062743,4,1
mix,MALD1_sR,MALD1,15292,144,words38,1,15292_38,924,TRUE,38,mix,10979,mix,mIks,7,5,2,5,2,mix,1,4,446,4,74,26,834,12485,1451,32437743,5,1
of,MALD1_sR,MALD1,15292,760,words38,1,15292_38,722,TRUE,38,of,11874,of,xv,4,1,3,1,3,of,1,2,370,3,32,32,590439,6670388,1244477,13151942776,3,1
often,MALD1_sR,MALD1,15292,293,words38,1,15292_38,977,TRUE,38,often,11895,often,cfxn,4,1,3,3,1,often,2,4,374,6,13,9,2925,90164,9149,92552476,5,1
oscillate,MALD1_sR,MALD1,15292,70,words38,1,15292_38,1120,TRUE,38,oscillate,12062,oscillate,asxlet,3,2,1,1,2,oscillate,3,6,589,10,4,2,3,74,1,158117,7,1
paid,MALD1_sR,MALD1,15292,369,words38,1,15292_38,839,TRUE,38,paid,12266,paid,ped,22,18,4,13,9,paid,1,3,529,4,82,19,4369,25590,5940,60295896,4,1
poach,MALD1_sR,MALD1,15292,308,words38,2,15292_38,976,TRUE,38,poach,13196,poach,poC,15,14,1,8,7,poach,1,3,439,6,41,9,17,117,11,75120,4,1
rub,MALD1_sR,MALD1,15292,121,words38,1,15292_38,825,TRUE,38,rub,14963,rub,r^b,23,18,5,14,9,rub,1,3,294,4,64,32,788,2697,348,3437527,4,1
skein,MALD1_sR,MALD1,15292,765,words38,2,15292_38,1046,FALSE,38,skein,15745,skein,sken,10,8,2,5,5,skein,1,4,516,6,35,6,5,102,0,208604,5,
sleeve,MALD1_sR,MALD1,15292,399,words38,1,15292_38,941,TRUE,38,sleeve,15800,sleeve,sliv,7,6,1,2,5,sleeve,1,4,657,7,20,2,286,2092,158,11445499,5,1
snap,MALD1_sR,MALD1,15292,557,words38,1,15292_38,773,TRUE,38,snap,15885,snap,sn@p,9,7,2,3,6,snap,1,4,375,5,20,12,887,3412,266,7982587,5,1
sob,MALD1_sR,MALD1,15292,634,words38,1,15292_38,944,TRUE,38,sob,15920,sob,sab,18,16,2,13,5,sob,1,3,549,4,65,32,77,513,54,800059,4,1
sport,MALD1_sR,MALD1,15292,676,words38,1,15292_38,715,TRUE,38,sport,16175,sport,sport,7,3,4,6,1,sport,1,5,502,6,20,11,1015,16323,1184,62692186,6,1
stunt,MALD1_sR,MALD1,15292,87,words38,1,15292_38,873,TRUE,38,stunt,16533,stunt,st^nt,2,1,1,1,1,stunt,1,5,462,6,14,11,469,931,293,1754828,6,1
swat,MALD1_sR,MALD1,15292,254,words38,3,15292_38,1044,TRUE,38,swat,16799,swat,swat,16,13,3,7,9,swat,1,4,526,5,30,17,196,882,208,1476384,5,1
trade,MALD1_sR,MALD1,15292,278,words38,1,15292_38,711,TRUE,38,trade,17567,trade,tred,13,9,4,4,9,trade,1,4,460,6,30,8,1795,33288,6150,110088441,5,1
trickle,MALD1_sR,MALD1,15292,202,words38,2,15292_38,773,TRUE,38,trickle,17706,trickle,trIkL,7,5,2,5,2,trickle,2,6,449,8,15,6,16,1185,244,716225,7,1
varied,MALD1_sR,MALD1,15292,215,words38,6,15292_38,1139,TRUE,38,varied,18341,varied,vErid,3,2,1,1,2,varied,2,5,511,6,15,1,41,4422,131,7013799,5,2
vessel,MALD1_sR,MALD1,15292,115,words38,3,15292_38,976,TRUE,38,vessel,18481,vessel,vEsL,6,5,1,4,2,vessel,2,5,502,7,24,15,477,3493,310,8794883,6,1
war,MALD1_sR,MALD1,15292,346,words38,1,15292_38,650,TRUE,38,war,18791,war,wor,29,20,9,19,10,war,1,3,379,4,121,46,8912,104024,32913,126526108,4,1
wide,MALD1_sR,MALD1,15292,303,words38,2,15292_38,936,TRUE,38,wide,19021,wide,wYd,26,23,3,15,11,wide,1,3,298,5,100,27,1214,28320,1972,87666217,4,1
wood,MALD1_sR,MALD1,15292,379,words38,2,15292_38,745,TRUE,38,wood,19142,wood,wUd,15,13,2,11,4,wood,1,3,289,5,30,17,1377,17037,1029,51133768,4,1
world,MALD1_sR,MALD1,15292,175,words38,1,15292_38,1774,TRUE,38,world,19168,world,wRld,5,4,1,4,1,world,1,4,460,6,35,5,23216,193305,43143,431966449,5,1
abode,MALD1_sR,MALD1,15301,304,words9,1,15301_76,725,TRUE,76,abode,52,abode,xbod,4,2,2,1,3,abode,2,4,509,4,10,4,33,213,12,1250165,3,1
beam,MALD1_sR,MALD1,15301,593,words9,1,15301_76,804,TRUE,76,beam,1636,beam,bim,16,14,2,9,7,beam,1,3,443,5,94,25,445,3469,153,11828265,4,1
blur,MALD1_sR,MALD1,15301,602,words9,1,15301_76,813,TRUE,76,blur,1973,blur,blR,6,3,3,2,4,blur,1,3,399,5,106,11,109,1469,111,1918107,4,1
bold,MALD1_sR,MALD1,15301,636,words9,8,15301_76,679,TRUE,76,bold,2009,bold,bold,18,14,4,11,7,bold,1,4,499,5,70,27,385,4302,699,18244843,5,1
bush,MALD1_sR,MALD1,15301,140,words9,1,15301_76,1195,TRUE,76,bush,2362,bush,bUS,6,5,1,3,3,bush,1,3,317,5,27,30,720,59007,35233,71300864,4,1
circuit,MALD1_sR,MALD1,15301,135,words9,2,15301_76,766,TRUE,76,circuit,3182,circuit,sRk|t,3,2,1,1,2,circuit,2,5,550,8,11,1,340,5681,849,26918881,6,1
clan,MALD1_sR,MALD1,15301,197,words9,1,15301_76,786,TRUE,76,clan,3234,clan,kl@n,12,11,1,3,9,clan,1,4,480,5,49,27,209,2155,130,6798554,5,1
cloth,MALD1_sR,MALD1,15301,397,words9,2,15301_76,815,TRUE,76,cloth,3319,cloth,klcT,3,2,1,1,2,cloth,1,4,459,6,19,8,311,5095,171,9764604,5,1
crept,MALD1_sR,MALD1,15301,328,words9,1,15301_76,847,TRUE,76,crept,4171,crept,krEpt,3,2,1,2,1,crept,1,5,345,5,11,4,58,1268,62,590578,5,1
crib,MALD1_sR,MALD1,15301,110,words9,1,15301_76,739,TRUE,76,crib,4183,crib,krIb,3,2,1,1,2,crib,1,4,262,5,34,9,316,965,118,3849386,5,1
dawn,MALD1_sR,MALD1,15301,676,words9,2,15301_76,712,TRUE,76,dawn,4465,dawn,dcn,19,16,3,16,3,dawn,1,3,345,5,101,20,1301,6154,737,12224273,4,1
diary,MALD1_sR,MALD1,15301,378,words9,1,15301_76,1088,TRUE,76,diary,4860,diary,dYri,6,4,2,5,1,diary,3,4,485,5,10,4,458,2632,356,14926124,5,1
drug,MALD1_sR,MALD1,15301,452,words9,1,15301_76,894,TRUE,76,drug,5309,drug,dr^g,8,6,2,3,5,drug,1,4,347,5,17,9,2306,37213,8980,79428645,5,1
fish,MALD1_sR,MALD1,15301,657,words9,2,15301_76,729,TRUE,76,fish,6456,fish,fIS,13,9,4,4,9,fish,1,3,407,5,50,18,4258,28281,2194,52768568,4,1
flag,MALD1_sR,MALD1,15301,391,words9,5,15301_76,911,TRUE,76,flag,6482,flag,fl@g,8,6,2,3,5,flag,1,4,589,5,30,17,892,6243,1599,33053840,5,1
harm,MALD1_sR,MALD1,15301,687,words9,1,15301_76,775,TRUE,76,harm,7661,harm,harm,9,8,1,3,6,harm,1,4,440,5,40,30,1621,7124,1524,10026586,5,1
heady,MALD1_sR,MALD1,15301,212,words9,3,15301_76,2226,FALSE,76,heady,7723,heady,hEdi,4,2,2,2,2,heady,2,4,347,5,51,13,20,725,53,440593,5,2
hurl,MALD1_sR,MALD1,15301,410,words9,3,15301_76,878,TRUE,76,hurl,8138,hurl,hRl,22,19,3,15,7,hurl,1,3,476,5,102,14,69,290,24,334757,4,1
incest,MALD1_sR,MALD1,15301,468,words9,4,15301_76,1056,TRUE,76,incest,8527,incest,InsEst,7,5,2,3,4,incest,2,6,551,7,8,4,44,686,239,51394714,6,1
informed,MALD1_sR,MALD1,15301,122,words9,2,15301_76,782,TRUE,76,informed,8778,informed,Informd,3,2,1,1,2,informed,2,7,582,8,4,3,633,7984,1011,38215335,7,3
jet,MALD1_sR,MALD1,15301,732,words9,1,15301_76,642,TRUE,76,jet,9321,jet,JEt,20,17,3,14,6,jet,1,3,350,4,74,30,721,5757,1077,16680047,4,1
lira,MALD1_sR,MALD1,15301,123,words9,3,15301_76,826,FALSE,76,lira,9990,lira,lIrx,4,1,3,1,3,lira,2,4,441,5,25,22,32,158,20,1663407,5,
nude,MALD1_sR,MALD1,15301,309,words9,1,15301_76,684,TRUE,76,nude,11726,nude,nud,15,13,2,8,7,nude,1,3,344,5,56,16,301,1643,322,96757551,4,1
offer,MALD1_sR,MALD1,15301,598,words9,2,15301_76,716,TRUE,76,offer,11880,offer,cfX,6,4,2,3,3,offer,2,3,472,6,32,8,3810,29215,3692,126228968,4,1
ooze,MALD1_sR,MALD1,15301,709,words9,1,15301_76,908,TRUE,76,ooze,11941,ooze,uz,10,3,7,9,1,ooze,1,2,418,5,111,5,27,289,15,656481,3,1
owl,MALD1_sR,MALD1,15301,656,words9,1,15301_76,714,TRUE,76,owl,12218,owl,Wl,15,10,5,13,2,owl,1,2,343,4,61,14,286,1467,134,5013390,3,1
paean,MALD1_sR,MALD1,15301,86,words9,1,15301_76,806,FALSE,76,paean,12259,paean,pian,3,1,2,1,2,paean,2,4,668,6,29,3,3,109,0,80694,5,1
pal,MALD1_sR,MALD1,15301,701,words9,1,15301_76,866,TRUE,76,pal,12275,pal,p@l,20,19,1,10,10,pal,1,3,469,4,82,47,2937,1803,312,9995683,4,1
parrot,MALD1_sR,MALD1,15301,509,words9,3,15301_76,1018,TRUE,76,parrot,12456,parrot,p@rxt,6,4,2,4,2,parrot,2,5,359,7,24,6,167,752,95,2682859,6,1
patriarchal,MALD1_sR,MALD1,15301,693,words9,3,15301_76,664,TRUE,76,patriarchal,12548,patriarchal,petriarkL,2,1,1,1,1,patriarchal,4,10,674,11,2,1,14,856,22,434296,10,2
pit,MALD1_sR,MALD1,15301,587,words9,3,15301_76,697,TRUE,76,pit,13054,pit,pIt,33,30,3,23,10,pit,1,3,243,4,87,42,674,3729,392,8536397,4,1
plight,MALD1_sR,MALD1,15301,635,words9,7,15301_76,1800,TRUE,76,plight,13156,plight,plYt,11,8,3,6,5,plight,1,4,370,4,25,5,63,1579,278,1330993,4,1
record,MALD1_sR,MALD1,15301,383,words9,1,15301_76,705,TRUE,76,record,14379,record,rIkord,2,1,1,1,1,record,2,6,525,7,6,7,4365,36369,9383,102244532,7,1
refute,MALD1_sR,MALD1,15301,716,words9,5,15301_76,974,TRUE,76,refute,14463,refute,rIfyut,3,2,1,1,2,refute,2,6,418,7,2,7,34,370,74,556518,7,1
sewer,MALD1_sR,MALD1,15301,418,words9,1,15301_76,694,TRUE,76,sewer,15497,sewer,suX,9,6,3,1,8,sewer,2,3,426,6,68,16,240,1088,130,5008805,4,1
six,MALD1_sR,MALD1,15301,48,words9,1,15301_76,860,TRUE,76,six,15738,six,sIks,8,7,1,5,3,six,1,4,472,4,74,30,10176,68004,14427,71373283,5,1
sold,MALD1_sR,MALD1,15301,62,words9,1,15301_76,725,TRUE,76,sold,15953,sold,sold,15,12,3,10,5,sold,1,4,579,5,53,25,2655,18763,3095,42980371,5,1
taste,MALD1_sR,MALD1,15301,440,words9,2,15301_76,589,TRUE,76,taste,17006,taste,test,9,8,1,7,2,taste,1,4,375,6,34,14,2617,14001,1677,17312480,5,1
three,MALD1_sR,MALD1,15301,555,words9,2,15301_76,778,TRUE,76,three,17293,three,Tri,9,8,1,7,2,three,1,3,454,6,47,7,27654,189312,36451,223420478,4,1
vilify,MALD1_sR,MALD1,15301,519,words9,3,15301_76,773,TRUE,76,vilify,18556,vilify,vIlxfY,2,1,1,1,1,vilify,3,6,618,7,0,1,8,86,30,56266,5,2
vow,MALD1_sR,MALD1,15301,200,words9,1,15301_76,1261,TRUE,76,vow,18710,vow,vW,14,11,3,10,4,vow,1,2,348,4,75,26,276,886,172,1127734,3,1
wait,MALD1_sR,MALD1,15301,285,words9,1,15301_76,666,TRUE,76,wait,18762,wait,wet,27,22,5,18,9,wait,1,3,390,5,91,32,42343,30118,11036,39005783,4,1
windy,MALD1_sR,MALD1,15301,310,words9,2,15301_76,766,TRUE,76,windy,19072,windy,wIndi,3,2,1,1,2,windy,2,5,397,5,24,14,134,1090,157,2163179,5,2
yen,MALD1_sR,MALD1,15301,155,words9,1,15301_76,745,FALSE,76,yen,19261,yen,yEn,20,19,1,17,3,yen,1,3,609,4,87,38,312,1013,171,5796042,4,1
art,MALD1_sR,MALD1,15302,32,words63,1,15302_63,610,TRUE,63,art,1072,art,art,13,4,9,8,5,art,1,3,324,4,67,43,3611,55350,4211,214704717,4,1
at,MALD1_sR,MALD1,15302,607,words63,1,15302_63,578,TRUE,63,at,1203,at,@t,31,12,19,23,8,at,1,2,320,3,85,73,164072,1238967,247370,2272272772,3,1
atone,MALD1_sR,MALD1,15302,352,words63,1,15302_63,787,TRUE,63,atone,1228,atone,xton,5,4,1,3,2,atone,2,4,492,6,9,7,43,148,12,154979,5,1
bane,MALD1_sR,MALD1,15302,794,words63,1,15302_63,619,FALSE,63,bane,1498,bane,ben,32,28,4,23,9,bane,1,3,449,5,174,47,94,336,12,737796,4,1
book,MALD1_sR,MALD1,15302,704,words63,2,15302_63,0,FALSE,63,book,2051,book,bUk,18,17,1,16,2,book,1,3,329,5,70,31,9026,67743,19088,330969639,4,1
burned,MALD1_sR,MALD1,15302,48,words63,1,15302_63,854,TRUE,63,burned,2350,burned,bRnd,9,7,2,6,3,burned,1,4,437,6,48,8,1448,7095,1174,4993504,5,2
candy,MALD1_sR,MALD1,15302,77,words63,2,15302_63,745,TRUE,63,candy,2533,candy,k@ndi,10,6,4,3,7,candy,2,5,494,6,43,23,1825,5139,929,13780648,6,1
cellar,MALD1_sR,MALD1,15302,678,words63,2,15302_63,593,TRUE,63,cellar,2823,cellar,sElX,10,6,4,3,7,cellar,2,4,422,7,113,6,478,1152,44,3002258,5,1
cinch,MALD1_sR,MALD1,15302,502,words63,1,15302_63,1047,TRUE,63,cinch,3169,cinch,sInC,8,6,2,5,3,cinch,1,4,529,6,26,13,182,354,31,427775,5,1
couch,MALD1_sR,MALD1,15302,376,words63,3,15302_63,742,FALSE,63,couch,4036,couch,kWC,9,7,2,6,3,couch,1,3,416,6,48,14,1197,5195,561,4581367,4,1
dwelt,MALD1_sR,MALD1,15302,652,words63,3,15302_63,868,FALSE,63,dwelt,5390,dwelt,dwElt,4,1,3,2,2,dwelt,1,5,501,5,9,2,5,154,7,514029,5,1
fully,MALD1_sR,MALD1,15302,650,words63,1,15302_63,775,TRUE,63,fully,6861,fully,fUli,9,7,2,8,1,fully,2,4,433,5,26,10,880,16324,2383,48617064,4,1
gem,MALD1_sR,MALD1,15302,81,words63,1,15302_63,697,TRUE,63,gem,7055,gem,JEm,9,8,1,6,3,gem,1,3,361,4,61,20,126,823,63,6156692,4,1
grove,MALD1_sR,MALD1,15302,96,words63,1,15302_63,638,FALSE,63,grove,7463,grove,grov,13,11,2,4,9,grove,1,4,431,6,40,21,197,3287,209,15189493,5,1
harangue,MALD1_sR,MALD1,15302,393,words63,4,15302_63,825,FALSE,63,harangue,7647,harangue,hX@G,2,1,1,1,1,harangue,2,4,463,9,11,2,4,107,16,62839,5,1
hurt,MALD1_sR,MALD1,15302,506,words63,2,15302_63,798,TRUE,63,hurt,8142,hurt,hRt,23,21,2,15,8,hurt,1,3,443,5,101,23,12564,18791,5882,12940340,4,1
lessen,MALD1_sR,MALD1,15302,486,words63,1,15302_63,878,TRUE,63,lessen,9833,lessen,lEsN,6,5,1,2,4,lessen,2,5,580,7,44,11,30,839,86,1087324,6,1
lie,MALD1_sR,MALD1,15302,145,words63,1,15302_63,562,TRUE,63,lie,9896,lie,lY,36,21,15,21,15,lie,1,2,300,4,156,58,6133,12906,2815,13539916,3,1
muck,MALD1_sR,MALD1,15302,246,words63,6,15302_63,715,TRUE,63,muck,11222,muck,m^k,25,22,3,14,11,muck,1,3,460,5,106,25,97,591,52,1305552,4,1
myth,MALD1_sR,MALD1,15302,349,words63,1,15302_63,829,TRUE,63,myth,11346,myth,mIT,15,14,1,8,7,myth,1,3,361,5,53,7,352,4390,471,6054397,4,1
noisy,MALD1_sR,MALD1,15302,134,words63,1,15302_63,621,TRUE,63,noisy,11612,noisy,nOzi,3,2,1,2,1,noisy,2,4,463,5,7,3,257,1692,146,3722908,5,1
normal,MALD1_sR,MALD1,15302,301,words63,2,15302_63,674,TRUE,63,normal,11662,normal,normL,3,1,2,1,2,normal,2,6,418,7,12,3,3589,20598,4401,56446291,7,2
pasty,MALD1_sR,MALD1,15302,601,words63,2,15302_63,675,TRUE,63,pasty,12524,pasty,p@sti,8,5,3,4,4,pasty,2,5,481,5,11,13,31,187,13,234413,5,1
point,MALD1_sR,MALD1,15302,457,words63,1,15302_63,599,TRUE,63,point,13213,point,pOnt,8,6,2,7,1,point,1,4,382,6,20,9,12063,106134,36964,175543899,5,1
quash,MALD1_sR,MALD1,15302,300,words63,1,15302_63,687,FALSE,63,quash,14078,quash,kwaS,5,4,1,2,3,quash,1,4,579,6,7,4,11,123,10,209847,5,1
quite,MALD1_sR,MALD1,15302,623,words63,1,15302_63,536,TRUE,63,quite,14117,quite,kwYt,10,7,3,3,7,quite,1,4,332,5,20,11,10332,43248,14429,58778450,4,1
risk,MALD1_sR,MALD1,15302,762,words63,1,15302_63,595,TRUE,63,risk,14857,risk,rIsk,9,5,4,5,4,risk,1,4,386,5,49,26,2501,43624,6650,91491902,5,1
shrub,MALD1_sR,MALD1,15302,701,words63,1,15302_63,629,TRUE,63,shrub,15634,shrub,Sr^b,4,3,1,3,1,shrub,1,4,467,6,12,6,14,535,23,1458217,5,1
slang,MALD1_sR,MALD1,15302,385,words63,5,15302_63,971,TRUE,63,slang,15778,slang,sl@G,11,10,1,2,9,slang,1,4,534,5,20,13,71,572,85,1819478,5,1
smear,MALD1_sR,MALD1,15302,741,words63,2,15302_63,723,TRUE,63,smear,15853,smear,smIr,8,6,2,7,1,smear,1,4,480,6,32,9,111,881,232,1289528,5,1
smoke,MALD1_sR,MALD1,15302,558,words63,1,15302_63,761,TRUE,63,smoke,15869,smoke,smok,7,6,1,3,4,smoke,1,4,622,6,19,11,3337,12251,2198,16571457,5,1
smug,MALD1_sR,MALD1,15302,21,words63,2,15302_63,706,TRUE,63,smug,15876,smug,sm^g,8,6,2,3,5,smug,1,4,412,5,9,5,122,637,49,463973,5,1
sop,MALD1_sR,MALD1,15302,466,words63,1,15302_63,738,TRUE,63,sop,16001,sop,sap,23,20,3,18,5,sop,1,3,423,4,84,45,14,206,13,1045740,4,1
spend,MALD1_sR,MALD1,15302,407,words63,1,15302_63,749,TRUE,63,spend,16098,spend,spEnd,5,3,2,3,2,spend,1,5,668,6,18,9,4757,24466,6789,26713780,6,1
spoiled,MALD1_sR,MALD1,15302,765,words63,2,15302_63,712,TRUE,63,spoiled,16157,spoiled,spOld,3,2,1,1,2,spoiled,1,5,556,7,7,2,432,1213,174,1403276,5,2
spoke,MALD1_sR,MALD1,15302,667,words63,2,15302_63,636,TRUE,63,spoke,16159,spoke,spok,9,7,2,4,5,spoke,1,4,559,6,20,10,1970,19237,5232,11577917,5,1
spoon,MALD1_sR,MALD1,15302,681,words63,5,15302_63,693,TRUE,63,spoon,16171,spoon,spun,11,10,1,2,9,spoon,1,4,655,6,21,10,388,3990,198,4000675,5,1
spore,MALD1_sR,MALD1,15302,153,words63,3,15302_63,927,TRUE,63,spore,16174,spore,spor,13,10,3,6,7,spore,1,4,555,6,40,14,7,172,12,589962,5,1
sprig,MALD1_sR,MALD1,15302,782,words63,3,15302_63,752,FALSE,63,sprig,16187,sprig,sprIg,2,1,1,1,1,sprig,1,5,470,6,9,5,12,250,4,143773,6,1
swept,MALD1_sR,MALD1,15302,40,words63,3,15302_63,766,TRUE,63,swept,16815,swept,swEpt,3,1,2,2,1,swept,1,5,471,4,11,7,243,4663,597,2612332,4,1
tinker,MALD1_sR,MALD1,15302,129,words63,1,15302_63,764,TRUE,63,tinker,17384,tinker,tIGkX,4,3,1,1,3,tinker,2,5,549,7,15,15,113,576,71,983290,6,1
tumble,MALD1_sR,MALD1,15302,555,words63,3,15302_63,701,TRUE,63,tumble,17824,tumble,t^mbL,8,5,3,7,1,tumble,2,6,411,7,15,13,79,1034,160,1925795,7,1
vet,MALD1_sR,MALD1,15302,529,words63,3,15302_63,753,TRUE,63,vet,18492,vet,vEt,16,14,2,13,3,vet,1,3,415,4,62,30,296,1319,214,4985571,4,1
what,MALD1_sR,MALD1,15302,106,words63,1,15302_63,692,TRUE,63,what,18916,what,hwat,7,5,2,3,4,what,1,3,321,5,61,19,501965,755309,320102,812428199,4,1
acre,MALD1_sR,MALD1,15308,42,words22,3,15308_22,793,TRUE,22,acre,186,acre,ekX,3,1,2,2,1,acre,2,3,558,5,55,17,93,4231,260,6661571,4,1
bag,MALD1_sR,MALD1,15308,656,words22,2,15308_22,787,TRUE,22,bag,1434,bag,b@g,28,26,2,17,11,bag,1,3,439,4,74,39,4796,17692,1987,40683161,4,1
bast,MALD1_sR,MALD1,15308,230,words22,1,15308_22,934,FALSE,22,bast,1593,bast,b@st,18,15,3,14,4,bast,1,4,491,5,58,40,13,43,4,286873,5,
blush,MALD1_sR,MALD1,15308,400,words22,4,15308_22,674,TRUE,22,blush,1976,blush,bl^S,7,6,1,5,2,blush,1,4,409,6,14,10,136,1104,103,1722003,5,1
cheek,MALD1_sR,MALD1,15308,751,words22,1,15308_22,643,TRUE,22,cheek,3005,cheek,Cik,21,19,2,16,5,cheek,1,3,341,6,76,10,365,4412,267,2681244,4,1
chuck,MALD1_sR,MALD1,15308,619,words22,4,15308_22,642,TRUE,22,chuck,3149,chuck,C^k,20,17,3,14,6,chuck,1,3,381,6,55,9,1096,4081,1506,9576652,4,1
cider,MALD1_sR,MALD1,15308,564,words22,1,15308_22,875,TRUE,22,cider,3166,cider,sYdX,8,5,3,5,3,cider,2,4,518,4,69,8,97,1206,64,1743446,5,1
clam,MALD1_sR,MALD1,15308,264,words22,2,15308_22,924,TRUE,22,clam,3229,clam,kl@m,16,11,5,4,12,clam,1,4,569,5,58,24,200,512,62,1619241,5,1
clay,MALD1_sR,MALD1,15308,169,words22,2,15308_22,893,TRUE,22,clay,3265,clay,kle,10,7,3,6,4,clay,1,3,318,5,55,19,612,5733,427,13359113,4,1
clog,MALD1_sR,MALD1,15308,680,words22,1,15308_22,763,TRUE,22,clog,3310,clog,klag,6,5,1,2,4,clog,1,4,469,5,24,13,41,336,43,791336,5,1
crate,MALD1_sR,MALD1,15308,201,words22,1,15308_22,1235,TRUE,22,crate,4130,crate,kret,16,13,3,9,7,crate,1,4,419,6,46,19,209,750,47,2337346,5,1
dead,MALD1_sR,MALD1,15308,689,words22,3,15308_22,712,TRUE,22,dead,4473,dead,dEd,24,22,2,15,9,dead,1,3,359,5,74,22,22898,38019,7974,48400230,4,1
dozen,MALD1_sR,MALD1,15308,795,words22,1,15308_22,734,TRUE,22,dozen,5233,dozen,d^zN,2,1,1,1,1,dozen,2,5,480,6,11,10,1231,14001,1913,9776227,6,1
drag,MALD1_sR,MALD1,15308,605,words22,3,15308_22,590,TRUE,22,drag,5239,drag,dr@g,7,6,1,3,4,drag,1,4,417,5,21,14,1349,4424,579,9151134,5,1
dram,MALD1_sR,MALD1,15308,758,words22,1,15308_22,848,FALSE,22,dram,5245,dram,dr@m,10,7,3,6,4,dram,1,4,506,5,33,23,10,124,1,1679051,5,1
fairy,MALD1_sR,MALD1,15308,398,words22,2,15308_22,916,TRUE,22,fairy,6178,fairy,f@ri,14,11,3,11,3,fairy,2,4,469,6,131,10,851,2165,351,6437994,5,2
fit,MALD1_sR,MALD1,15308,438,words22,1,15308_22,719,TRUE,22,fit,6465,fit,fIt,28,25,3,20,8,fit,1,3,235,4,79,32,2937,19475,2436,42360098,4,1
gill,MALD1_sR,MALD1,15308,41,words22,2,15308_22,738,TRUE,22,gill,7161,gill,gIl,28,24,4,23,5,gill,1,3,275,5,99,34,87,1272,78,3673631,4,1
glide,MALD1_sR,MALD1,15308,211,words22,2,15308_22,659,TRUE,22,glide,7210,glide,glYd,5,4,1,3,2,glide,1,4,396,6,22,7,120,812,64,1732328,5,1
gloom,MALD1_sR,MALD1,15308,448,words22,1,15308_22,870,TRUE,22,gloom,7224,gloom,glum,9,7,2,6,3,gloom,1,4,373,6,21,6,59,1069,105,878238,5,1
gray,MALD1_sR,MALD1,15308,399,words22,3,15308_22,755,TRUE,22,gray,7388,gray,gre,18,8,10,7,11,gray,1,3,449,5,61,31,1077,16298,1305,21425871,4,1
hardy,MALD1_sR,MALD1,15308,25,words22,1,15308_22,823,TRUE,22,hardy,7656,hardy,hardi,5,3,2,1,4,hardy,2,5,399,6,24,11,188,2674,240,4748962,6,1
hawk,MALD1_sR,MALD1,15308,687,words22,1,15308_22,739,TRUE,22,hawk,7705,hawk,hck,18,14,4,13,5,hawk,1,3,382,5,89,14,650,2431,319,6531503,4,1
hay,MALD1_sR,MALD1,15308,773,words22,1,15308_22,780,TRUE,22,hay,7709,hay,he,26,22,4,15,11,hay,1,2,273,4,158,47,325,2166,136,5692533,3,1
inch,MALD1_sR,MALD1,15308,108,words22,2,15308_22,747,TRUE,22,inch,8529,inch,InC,8,1,7,6,2,inch,1,3,429,5,33,18,631,18072,831,35632579,4,1
lame,MALD1_sR,MALD1,15308,492,words22,3,15308_22,815,TRUE,22,lame,9618,lame,lem,28,23,5,18,10,lame,1,3,364,5,87,41,557,1120,359,3018425,4,1
marine,MALD1_sR,MALD1,15308,116,words22,3,15308_22,816,TRUE,22,marine,10453,marine,mXin,7,5,2,4,3,marine,2,4,485,7,32,24,718,9545,1781,37146628,5,1
meter,MALD1_sR,MALD1,15308,250,words22,1,15308_22,932,TRUE,22,meter,10764,meter,mitX,11,8,3,8,3,meter,2,4,599,6,68,26,317,4244,389,22874915,5,1
mystery,MALD1_sR,MALD1,15308,608,words22,1,15308_22,771,TRUE,22,mystery,11339,mystery,mIstXi,4,2,2,2,2,mystery,3,6,520,7,9,2,1171,7441,1772,19281540,7,1
naval,MALD1_sR,MALD1,15308,120,words22,1,15308_22,783,TRUE,22,naval,11425,naval,nevL,5,4,1,1,4,naval,2,5,459,5,12,10,292,3333,683,8091902,5,2
node,MALD1_sR,MALD1,15308,360,words22,1,15308_22,752,TRUE,22,node,11604,node,nod,20,17,3,13,7,node,1,3,390,5,89,23,25,903,31,22292005,4,1
park,MALD1_sR,MALD1,15308,494,words22,5,15308_22,570,TRUE,22,park,12435,park,park,18,12,6,9,9,park,1,4,369,5,52,29,3678,42050,3560,141555213,5,1
paw,MALD1_sR,MALD1,15308,272,words22,2,15308_22,826,TRUE,22,paw,12573,paw,pc,19,15,4,11,8,paw,1,2,357,4,78,37,159,1030,39,2007280,3,1
pew,MALD1_sR,MALD1,15308,280,words22,1,15308_22,1239,TRUE,22,pew,12848,pew,pyu,9,5,4,7,2,pew,1,3,265,4,53,31,53,1478,259,1115032,4,1
pox,MALD1_sR,MALD1,15308,268,words22,1,15308_22,912,TRUE,22,pox,13431,pox,paks,7,5,2,5,2,pox,1,4,549,3,66,27,75,249,46,614286,4,1
queer,MALD1_sR,MALD1,15308,256,words22,1,15308_22,739,TRUE,22,queer,14084,queer,kwIr,10,9,1,2,8,queer,1,4,418,6,29,2,296,928,43,2717979,5,1
ramp,MALD1_sR,MALD1,15308,652,words22,1,15308_22,603,TRUE,22,ramp,14204,ramp,r@mp,14,10,4,10,4,ramp,1,4,365,5,40,29,147,1831,210,4374407,5,1
rattle,MALD1_sR,MALD1,15308,458,words22,1,15308_22,1854,FALSE,22,rattle,14270,rattle,r@tL,9,7,2,5,4,rattle,2,5,459,7,26,13,172,1085,95,1162261,6,1
sector,MALD1_sR,MALD1,15308,493,words22,4,15308_22,1115,TRUE,22,sector,15350,sector,sEktX,9,6,3,8,1,sector,2,5,608,7,32,8,360,10372,1975,48747184,6,1
shod,MALD1_sR,MALD1,15308,419,words22,1,15308_22,956,TRUE,22,shod,15591,shod,Sad,18,15,3,13,5,shod,1,3,542,5,72,11,6,100,8,201094,4,1
smash,MALD1_sR,MALD1,15308,44,words22,1,15308_22,908,TRUE,22,smash,15851,smash,sm@S,4,2,2,3,1,smash,1,4,577,6,10,6,421,1210,199,3192305,5,1
spring,MALD1_sR,MALD1,15308,17,words22,3,15308_22,795,TRUE,22,spring,16189,spring,sprIG,5,4,1,2,3,spring,2,5,503,7,12,15,1597,25633,2229,64816752,6,1
squash,MALD1_sR,MALD1,15308,139,words22,1,15308_22,817,TRUE,22,squash,16220,squash,skwaS,5,3,2,2,3,squash,1,5,612,7,5,2,223,2311,103,3985349,6,1
swell,MALD1_sR,MALD1,15308,203,words22,3,15308_22,810,TRUE,22,swell,16813,swell,swEl,10,8,2,6,4,swell,1,4,530,6,31,15,1061,1346,125,2214467,5,1
torque,MALD1_sR,MALD1,15308,798,words22,4,15308_22,605,TRUE,22,torque,17509,torque,tork,11,8,3,4,7,torque,1,4,357,4,52,0,37,1024,18,4264924,5,1
traitor,MALD1_sR,MALD1,15308,528,words22,1,15308_22,916,TRUE,22,traitor,17580,traitor,tretX,3,2,1,1,2,traitor,2,5,360,8,30,3,540,566,127,698922,6,1
troll,MALD1_sR,MALD1,15308,342,words22,1,15308_22,581,TRUE,22,troll,17757,troll,trol,9,5,4,4,5,troll,1,4,441,6,29,11,138,714,50,2080526,5,1
trouble,MALD1_sR,MALD1,15308,103,words22,2,15308_22,514,TRUE,22,trouble,17770,trouble,tr^bL,5,4,1,3,2,trouble,2,6,365,8,17,4,11401,22552,6621,24522535,7,1
try,MALD1_sR,MALD1,15308,704,words22,1,15308_22,997,TRUE,22,try,17802,try,trY,19,10,9,6,13,try,1,3,388,4,44,19,24314,63020,22091,114392006,4,1
vest,MALD1_sR,MALD1,15308,496,words22,1,15308_22,827,TRUE,22,vest,18482,vest,vEst,19,16,3,14,5,vest,1,4,413,5,45,27,284,1568,208,3720750,5,1
vine,MALD1_sR,MALD1,15308,783,words22,3,15308_22,859,TRUE,22,vine,18570,vine,vYn,21,19,2,14,7,vine,1,3,589,5,78,35,107,1364,55,3646886,4,1
widen,MALD1_sR,MALD1,15308,283,words22,1,15308_22,851,TRUE,22,widen,19022,widen,wYdN,2,1,1,1,1,widen,2,5,412,6,42,16,42,788,105,1181299,6,2
wild,MALD1_sR,MALD1,15308,67,words22,3,15308_22,760,TRUE,22,wild,19036,wild,wYld,10,8,2,7,3,wild,1,4,524,5,50,24,2923,17681,2361,39947661,5,1
ad,MALD1_sR,MALD1,15321,21,words12,3,15321_12,895,TRUE,12,ad,217,ad,@d,25,10,15,15,10,ad,1,2,539,3,82,61,694,9589,2671,78774169,3,
allied,MALD1_sR,MALD1,15321,321,words12,5,15321_12,706,TRUE,12,allied,522,allied,xlYd,12,10,2,6,6,allied,2,4,427,7,17,7,147,3336,821,7508812,5,2
anger,MALD1_sR,MALD1,15321,738,words12,1,15321_12,608,TRUE,12,anger,718,anger,@GgX,3,2,1,1,2,anger,2,4,320,6,12,29,991,10499,2478,7991258,5,1
birdie,MALD1_sR,MALD1,15321,524,words12,1,15321_12,799,TRUE,12,birdie,1856,birdie,bRdi,7,6,1,3,4,birdie,2,4,502,7,65,6,253,796,31,775268,5,
but,MALD1_sR,MALD1,15321,694,words12,1,15321_12,901,TRUE,12,but,2373,but,b^t,35,30,5,21,14,but,1,3,289,4,101,40,225291,1149758,330971,999908295,4,1
chaste,MALD1_sR,MALD1,15321,92,words12,1,15321_12,746,TRUE,12,chaste,2977,chaste,Cest,9,8,1,6,3,chaste,1,4,513,7,20,5,30,238,13,289676,4,1
chat,MALD1_sR,MALD1,15321,640,words12,1,15321_12,954,TRUE,12,chat,2982,chat,C@t,22,17,5,16,6,chat,1,3,346,5,60,32,830,2994,745,83643143,4,1
clad,MALD1_sR,MALD1,15321,432,words12,1,15321_12,794,FALSE,12,clad,3225,clad,kl@d,13,11,2,4,9,clad,1,4,382,5,40,15,10,1638,65,2247938,5,1
click,MALD1_sR,MALD1,15321,2,words12,2,15321_12,740,TRUE,12,click,3288,click,klIk,19,14,5,8,11,click,1,4,352,6,67,16,327,4675,804,536761994,5,1
climb,MALD1_sR,MALD1,15321,320,words12,4,15321_12,955,TRUE,12,climb,3296,climb,klYm,5,4,1,3,2,climb,1,4,394,6,39,3,1007,6010,612,5699767,5,1
cock,MALD1_sR,MALD1,15321,536,words12,1,15321_12,980,TRUE,12,cock,3367,cock,kak,30,24,6,18,12,cock,1,3,419,5,161,23,580,722,34,37575461,4,1
don,MALD1_sR,MALD1,15321,403,words12,2,15321_12,774,TRUE,12,don,5180,don,dan,19,18,1,13,6,don,1,3,347,4,135,61,321085,12771,4419,26009351,4,1
dunce,MALD1_sR,MALD1,15321,664,words12,1,15321_12,741,FALSE,12,dunce,5356,dunce,d^ns,4,3,1,3,1,dunce,1,4,469,5,26,10,25,55,8,117172,5,1
fame,MALD1_sR,MALD1,15321,629,words12,3,15321_12,995,TRUE,12,fame,6199,fame,fem,24,19,5,14,10,fame,1,3,380,5,63,28,441,5747,1183,10968010,4,1
fixed,MALD1_sR,MALD1,15321,588,words12,3,15321_12,957,TRUE,12,fixed,6470,fixed,fIkst,3,1,2,1,2,fixed,1,5,421,5,13,10,1647,8507,1011,49221217,5,2
force,MALD1_sR,MALD1,15321,165,words12,2,15321_12,754,TRUE,12,force,6650,force,fors,16,14,2,7,9,force,1,4,478,6,62,13,3604,45496,10829,79207090,5,1
gnash,MALD1_sR,MALD1,15321,705,words12,1,15321_12,1009,TRUE,12,gnash,7248,gnash,n@S,15,14,1,10,5,gnash,1,3,487,6,53,2,5,18,5,66277,4,1
goose,MALD1_sR,MALD1,15321,261,words12,1,15321_12,753,TRUE,12,goose,7294,goose,gus,12,11,1,9,3,goose,1,3,437,6,49,18,665,1695,185,3739646,4,1
grain,MALD1_sR,MALD1,15321,130,words12,2,15321_12,678,TRUE,12,grain,7340,grain,gren,20,16,4,7,13,grain,1,4,459,6,69,18,243,5014,520,10244623,5,1
hurdle,MALD1_sR,MALD1,15321,176,words12,1,15321_12,1909,TRUE,12,hurdle,8137,hurdle,hRdL,5,4,1,3,2,hurdle,2,5,439,7,16,5,37,880,190,1048302,6,1
image,MALD1_sR,MALD1,15321,103,words12,1,15321_12,880,TRUE,12,image,8292,image,ImIJ,4,3,1,1,3,image,2,4,405,6,7,2,1154,27874,2858,197884704,5,1
ivy,MALD1_sR,MALD1,15321,309,words12,1,15321_12,1191,FALSE,12,ivy,9265,ivy,Yvi,4,2,2,3,1,ivy,2,3,425,3,23,7,172,2180,216,3926107,4,1
leaden,MALD1_sR,MALD1,15321,776,words12,1,15321_12,949,TRUE,12,leaden,9737,leaden,lEdN,5,4,1,3,2,leaden,2,5,386,6,38,9,5,194,5,116308,5,1
liquor,MALD1_sR,MALD1,15321,539,words12,4,15321_12,649,TRUE,12,liquor,9989,liquor,lIkX,14,11,3,10,4,liquor,2,4,329,7,49,2,882,2352,317,4727755,5,1
merge,MALD1_sR,MALD1,15321,104,words12,2,15321_12,907,TRUE,12,merge,10715,merge,mRJ,11,7,4,7,4,merge,1,3,440,6,48,15,71,983,122,5962129,4,1
mild,MALD1_sR,MALD1,15321,697,words12,4,15321_12,778,TRUE,12,mild,10821,mild,mYld,8,7,1,6,2,mild,1,4,413,5,31,16,245,4307,428,6826082,5,1
ode,MALD1_sR,MALD1,15321,572,words12,6,15321_12,881,TRUE,12,ode,11868,ode,od,24,12,12,13,11,ode,1,2,334,4,100,34,41,355,33,1648112,3,1
once,MALD1_sR,MALD1,15321,27,words12,1,15321_12,661,TRUE,12,once,11924,once,w^ns,4,2,2,2,2,once,1,4,393,4,17,11,17589,99383,17510,111894502,5,1
panel,MALD1_sR,MALD1,15321,680,words12,2,15321_12,784,TRUE,12,panel,12337,panel,p@nL,7,6,1,2,5,panel,2,5,379,6,30,12,372,12028,3031,53785270,6,1
pile,MALD1_sR,MALD1,15321,118,words12,2,15321_12,945,TRUE,12,pile,12993,pile,pYl,28,25,3,20,8,pile,1,3,398,5,99,28,672,5040,411,4828878,4,1
pod,MALD1_sR,MALD1,15321,594,words12,3,15321_12,907,TRUE,12,pod,13201,pod,pad,23,17,6,14,9,pod,1,3,389,4,62,31,408,998,64,5209484,4,1
poker,MALD1_sR,MALD1,15321,177,words12,2,15321_12,705,TRUE,12,poker,13220,poker,pokX,8,6,2,4,4,poker,2,4,398,6,39,15,819,1501,266,129058482,5,2
polo,MALD1_sR,MALD1,15321,646,words12,2,15321_12,704,FALSE,12,polo,13253,polo,polo,7,5,2,3,4,polo,2,4,396,5,36,21,178,1316,118,8045348,5,1
porch,MALD1_sR,MALD1,15321,454,words12,1,15321_12,785,TRUE,12,porch,13318,porch,porC,7,5,2,2,5,porch,1,4,470,6,25,16,491,5514,271,3420626,5,1
prim,MALD1_sR,MALD1,15321,209,words12,1,15321_12,950,TRUE,12,prim,13630,prim,prIm,10,7,3,4,6,prim,1,4,348,5,31,26,19,219,11,668388,5,1
rare,MALD1_sR,MALD1,15321,624,words12,6,15321_12,742,TRUE,12,rare,14240,rare,rEr,22,20,2,17,5,rare,1,3,352,5,122,30,1087,12194,1902,29730256,4,1
rut,MALD1_sR,MALD1,15321,297,words12,2,15321_12,1961,TRUE,12,rut,15033,rut,r^t,28,25,3,18,10,rut,1,3,317,4,90,36,78,710,37,557418,4,1
serve,MALD1_sR,MALD1,15321,246,words12,5,15321_12,1359,TRUE,12,serve,15474,serve,sRv,14,10,4,7,7,serve,1,3,607,6,44,15,1935,23965,2931,36697856,4,1
shard,MALD1_sR,MALD1,15321,659,words12,2,15321_12,754,TRUE,12,shard,15531,shard,Sard,12,11,1,9,3,shard,1,4,450,6,47,19,37,166,9,288486,5,1
shill,MALD1_sR,MALD1,15321,703,words12,1,15321_12,786,TRUE,12,shill,15570,shill,SIl,25,23,2,21,4,shill,1,3,417,6,98,16,14,78,26,167644,4,
slake,MALD1_sR,MALD1,15321,347,words12,3,15321_12,1623,FALSE,12,slake,15774,slake,slek,12,9,3,5,7,slake,1,4,392,4,23,14,3,35,1,54780,4,1
sloth,MALD1_sR,MALD1,15321,216,words12,1,15321_12,657,TRUE,12,sloth,15832,sloth,slcT,3,2,1,1,2,sloth,1,4,529,6,15,8,74,290,52,519816,4,1
sought,MALD1_sR,MALD1,15321,121,words12,2,15321_12,918,TRUE,12,sought,16021,sought,sct,24,19,5,18,6,sought,1,3,456,4,64,7,240,10896,813,12399522,4,1
spilled,MALD1_sR,MALD1,15321,800,words12,2,15321_12,756,TRUE,12,spilled,16116,spilled,spIld,3,2,1,1,2,spilled,1,5,559,7,10,5,324,1819,187,978351,5,2
still,MALD1_sR,MALD1,15321,376,words12,4,15321_12,988,TRUE,12,still,16370,still,stIl,17,14,3,5,12,still,1,4,549,6,49,18,40225,195162,47989,190450277,5,1
tack,MALD1_sR,MALD1,15321,603,words12,1,15321_12,765,TRUE,12,tack,16920,tack,t@k,37,27,10,23,14,tack,1,3,377,5,115,32,108,912,90,2548232,4,1
tallow,MALD1_sR,MALD1,15321,655,words12,3,15321_12,803,FALSE,12,tallow,16945,tallow,t@lo,10,8,2,8,2,tallow,2,4,402,6,31,11,5,138,0,239819,4,1
twig,MALD1_sR,MALD1,15321,205,words12,2,15321_12,786,TRUE,12,twig,17888,twig,twIg,8,7,1,4,4,twig,1,4,333,5,19,10,69,412,10,606887,5,1
vial,MALD1_sR,MALD1,15321,449,words12,1,15321_12,858,TRUE,12,vial,18505,vial,vYL,10,6,4,1,9,vial,2,4,389,5,19,22,66,496,46,1014511,5,1
wand,MALD1_sR,MALD1,15321,343,words12,1,15321_12,724,FALSE,12,wand,18784,wand,wand,9,6,3,6,3,wand,1,4,374,5,38,29,157,582,74,1888212,5,1
wealth,MALD1_sR,MALD1,15321,472,words12,3,15321_12,2379,TRUE,12,wealth,18859,wealth,wElT,6,5,1,1,5,wealth,1,4,521,7,26,4,324,8451,1231,14325239,5,1
wick,MALD1_sR,MALD1,15321,348,words12,4,15321_12,707,TRUE,12,wick,19016,wick,wIk,26,23,3,16,10,wick,1,3,333,5,119,29,128,393,25,1224557,4,1
yankee,MALD1_sR,MALD1,15321,367,words12,9,15321_12,780,TRUE,12,yankee,19239,Yankee,y@Gki,3,2,1,2,1,yankee,2,5,444,7,16,4,459,1670,280,4515905,6,1
zip,MALD1_sR,MALD1,15321,699,words12,6,15321_12,806,TRUE,12,zip,19313,zip,zIp,14,13,1,12,2,zip,1,3,446,4,52,23,389,1981,232,70559906,4,1
actor,MALD1_sR,MALD1,15345,162,words18,6,15345_18,695,TRUE,18,actor,207,actor,@ktX,5,2,3,4,1,actor,2,4,416,6,25,9,1343,9611,3815,16283217,5,2
altar,MALD1_sR,MALD1,15345,630,words18,1,15345_18,1051,TRUE,18,altar,562,altar,cltX,5,1,4,4,1,altar,2,4,469,6,21,13,259,2233,171,2628192,5,1
bat,MALD1_sR,MALD1,15345,466,words18,1,15345_18,799,TRUE,18,bat,1598,bat,b@t,40,33,7,25,15,bat,1,3,384,4,101,54,1052,4169,567,7734454,4,1
brown,MALD1_sR,MALD1,15345,329,words18,1,15345_18,583,TRUE,18,brown,2247,brown,brWn,10,8,2,3,7,brown,1,4,438,6,44,15,3066,37344,6568,64118556,5,1
bruise,MALD1_sR,MALD1,15345,43,words18,2,15345_18,736,TRUE,18,bruise,2252,bruise,bruz,10,8,2,3,7,bruise,1,4,447,7,68,6,165,531,74,388443,5,1
bunker,MALD1_sR,MALD1,15345,214,words18,1,15345_18,900,TRUE,18,bunker,2322,bunker,b^GkX,4,3,1,2,2,bunker,2,5,442,7,18,17,239,1276,302,1914784,6,2
chamois,MALD1_sR,MALD1,15345,360,words18,1,15345_18,1590,FALSE,18,chamois,2914,chamois,S@mi,5,4,1,2,3,chamois,2,4,584,6,23,0,11,139,3,356783,4,1
chick,MALD1_sR,MALD1,15345,376,words18,1,15345_18,981,TRUE,18,chick,3039,chick,CIk,23,22,1,16,7,chick,1,3,358,6,66,15,1334,1506,193,7776742,4,1
clear,MALD1_sR,MALD1,15345,730,words18,1,15345_18,703,TRUE,18,clear,3269,clear,klIr,9,8,1,5,4,clear,1,4,431,6,38,11,8763,51346,12859,88453565,5,1
clot,MALD1_sR,MALD1,15345,60,words18,1,15345_18,1406,FALSE,18,clot,3318,clot,klat,12,10,2,6,6,clot,1,4,454,5,44,18,92,403,87,531650,5,1
comet,MALD1_sR,MALD1,15345,495,words18,2,15345_18,952,TRUE,18,comet,3502,comet,kamxt,4,2,2,1,3,comet,2,5,482,6,14,7,157,1913,156,3125758,6,2
dock,MALD1_sR,MALD1,15345,567,words18,1,15345_18,572,TRUE,18,dock,5131,dock,dak,22,21,1,16,6,dock,1,3,354,5,126,20,497,2769,241,6018421,4,1
drone,MALD1_sR,MALD1,15345,409,words18,1,15345_18,733,TRUE,18,drone,5294,drone,dron,12,11,1,5,7,drone,1,4,413,6,35,17,144,930,178,725818,5,1
felon,MALD1_sR,MALD1,15345,525,words18,1,15345_18,1021,TRUE,18,felon,6316,felon,fEl|n,3,2,1,2,1,felon,2,5,565,6,52,8,128,399,133,392714,6,1
flop,MALD1_sR,MALD1,15345,113,words18,1,15345_18,741,TRUE,18,flop,6562,flop,flap,9,7,2,5,4,flop,1,4,354,5,18,18,118,836,240,2648219,5,1
flute,MALD1_sR,MALD1,15345,350,words18,1,15345_18,792,TRUE,18,flute,6597,flute,flut,12,10,2,2,10,flute,1,4,409,6,29,9,108,881,86,4091997,5,1
gent,MALD1_sR,MALD1,15345,139,words18,2,15345_18,665,TRUE,18,gent,7092,gent,JEnt,17,14,3,12,5,gent,1,4,391,5,57,32,82,175,31,1074241,5,1
glow,MALD1_sR,MALD1,15345,527,words18,3,15345_18,643,TRUE,18,glow,7234,glow,glo,13,7,6,8,5,glow,1,3,308,5,50,17,293,3916,139,5332631,4,1
ham,MALD1_sR,MALD1,15345,167,words18,1,15345_18,759,TRUE,18,ham,7607,ham,h@m,26,24,2,14,12,ham,1,3,464,4,105,56,591,2215,283,6719894,4,1
howl,MALD1_sR,MALD1,15345,115,words18,1,15345_18,725,TRUE,18,howl,8081,howl,hWl,15,13,2,13,2,howl,1,3,376,5,82,13,105,794,60,835214,4,1
links,MALD1_sR,MALD1,15345,262,words18,1,15345_18,867,TRUE,18,links,9968,links,lIGks,3,2,1,2,1,links,1,5,408,5,29,21,141,5966,537,339944467,6,1
morass,MALD1_sR,MALD1,15345,516,words18,2,15345_18,1444,FALSE,18,morass,11134,morass,mX@s,4,3,1,2,2,morass,2,4,541,7,14,6,5,216,35,135710,5,1
moss,MALD1_sR,MALD1,15345,272,words18,2,15345_18,686,TRUE,18,moss,11180,moss,mcs,15,14,1,12,3,moss,1,3,480,5,90,44,145,2605,209,5520302,4,1
pay,MALD1_sR,MALD1,15345,105,words18,1,15345_18,883,TRUE,18,pay,12575,pay,pe,33,20,13,17,16,pay,1,2,292,4,147,47,12985,51421,14803,129203391,3,2
rash,MALD1_sR,MALD1,15345,577,words18,3,15345_18,614,TRUE,18,rash,14248,rash,r@S,26,20,6,15,11,rash,1,3,447,5,86,35,410,1209,150,2430246,4,1
rich,MALD1_sR,MALD1,15345,144,words18,1,15345_18,701,TRUE,18,rich,14802,rich,rIC,21,20,1,10,11,rich,1,3,439,5,83,24,4100,23965,4320,37207657,4,1
scrape,MALD1_sR,MALD1,15345,37,words18,2,15345_18,914,TRUE,18,scrape,15276,scrape,skrep,3,2,1,1,2,scrape,1,5,569,7,8,6,210,1357,92,699467,6,1
sneeze,MALD1_sR,MALD1,15345,100,words18,4,15345_18,804,TRUE,18,sneeze,15893,sneeze,sniz,3,2,1,1,2,sneeze,1,4,566,7,46,2,150,352,72,366864,5,1
spry,MALD1_sR,MALD1,15345,77,words18,1,15345_18,1005,FALSE,18,spry,16198,spry,sprY,5,2,3,1,4,spry,1,4,566,4,8,5,32,141,9,217147,5,1
steep,MALD1_sR,MALD1,15345,750,words18,1,15345_18,772,TRUE,18,steep,16324,steep,stip,10,8,2,3,7,steep,1,4,373,6,41,15,125,4143,238,3399504,5,1
switch,MALD1_sR,MALD1,15345,173,words18,2,15345_18,1005,TRUE,18,switch,16829,switch,swIC,11,10,1,5,6,switch,1,4,475,7,21,6,1434,6924,979,45341217,5,1
thai,MALD1_sR,MALD1,15345,667,words18,1,15345_18,867,TRUE,18,thai,17190,Thai,tY,34,22,12,18,16,thai,1,2,355,5,126,19,167,2063,175,13729139,3,
thrill,MALD1_sR,MALD1,15345,471,words18,2,15345_18,619,TRUE,18,thrill,17302,thrill,TrIl,7,6,1,6,1,thrill,1,4,467,7,17,5,429,2027,380,2690731,5,1
tops,MALD1_sR,MALD1,15345,271,words18,1,15345_18,684,TRUE,18,tops,17494,tops,taps,5,4,1,3,2,tops,1,4,452,5,38,30,375,3305,257,11774961,5,2
vie,MALD1_sR,MALD1,15345,36,words18,1,15345_18,973,TRUE,18,vie,18540,vie,vY,25,18,7,17,8,vie,1,2,308,4,105,48,110,616,43,2473789,3,1
will,MALD1_sR,MALD1,15345,102,words18,1,15345_18,627,TRUE,18,will,19044,will,wIl,34,28,6,24,10,will,1,3,308,5,134,33,108306,501986,140565,1356315700,4,1
baby,MALD1_sR,MALD1,15351,124,words20,6,15351_20,912,TRUE,20,baby,1412,baby,bebi,5,4,1,3,2,baby,2,4,372,5,55,17,25978,34012,8993,117716269,5,1
blood,MALD1_sR,MALD1,15351,122,words20,4,15351_20,890,TRUE,20,blood,1942,blood,bl^d,7,6,1,2,5,blood,1,4,369,6,20,8,9492,36787,5666,61356375,5,1
cave,MALD1_sR,MALD1,15351,763,words20,4,15351_20,727,TRUE,20,cave,2797,cave,kev,22,19,3,12,10,cave,1,3,470,5,75,36,713,4364,413,7669404,4,1
corn,MALD1_sR,MALD1,15351,235,words20,2,15351_20,1515,TRUE,20,corn,3962,corn,korn,20,14,6,11,9,corn,1,4,410,5,93,38,725,9077,780,10726347,5,1
curry,MALD1_sR,MALD1,15351,464,words20,6,15351_20,722,TRUE,20,curry,4329,curry,kRi,14,10,4,5,9,curry,2,3,409,6,106,18,124,2144,319,4030691,4,2
curve,MALD1_sR,MALD1,15351,304,words20,2,15351_20,779,TRUE,20,curve,4338,curve,kRv,13,12,1,6,7,curve,1,3,468,6,52,10,235,3929,424,11071742,4,1
dally,MALD1_sR,MALD1,15351,766,words20,2,15351_20,867,TRUE,20,dally,4410,dally,d@li,14,13,1,13,1,dally,2,4,499,5,80,24,39,100,2,142954,5,1
fatal,MALD1_sR,MALD1,15351,453,words20,1,15351_20,729,TRUE,20,fatal,6253,fatal,fetL,7,5,2,3,4,fatal,2,5,360,6,9,7,362,3232,719,6786528,6,2
flunk,MALD1_sR,MALD1,15351,744,words20,2,15351_20,845,TRUE,20,flunk,6587,flunk,fl^Gk,6,3,3,4,2,flunk,1,5,335,6,14,10,92,81,22,81741,6,1
garb,MALD1_sR,MALD1,15351,321,words20,3,15351_20,1195,TRUE,20,garb,6997,garb,garb,4,2,2,1,3,garb,1,4,394,5,28,26,16,469,37,614648,5,1
german,MALD1_sR,MALD1,15351,382,words20,1,15351_20,651,TRUE,20,german,7117,german,JRmxn,5,4,1,4,1,german,2,5,380,7,47,30,1624,15726,1764,53712683,6,2
hack,MALD1_sR,MALD1,15351,319,words20,1,15351_20,848,TRUE,20,hack,7559,hack,h@k,30,27,3,17,13,hack,1,3,412,5,129,34,436,928,91,6547946,4,1
hulk,MALD1_sR,MALD1,15351,619,words20,8,15351_20,1250,TRUE,20,hulk,8096,hulk,h^lk,5,4,1,2,3,hulk,1,4,379,5,21,11,208,407,77,2113535,5,1
jewel,MALD1_sR,MALD1,15351,137,words20,4,15351_20,1002,TRUE,20,jewel,9326,jewel,JuL,6,5,1,2,4,jewel,1,3,619,6,70,5,369,1380,162,5603871,4,1
judge,MALD1_sR,MALD1,15351,767,words20,3,15351_20,614,TRUE,20,judge,9388,judge,J^J,6,5,1,4,2,judge,1,3,470,6,16,11,4063,26228,11590,30906773,4,1
mogul,MALD1_sR,MALD1,15351,731,words20,1,15351_20,1588,TRUE,20,mogul,11017,mogul,mogL,4,3,1,1,3,mogul,2,5,499,6,30,4,47,891,159,753098,6,1
mutton,MALD1_sR,MALD1,15351,286,words20,6,15351_20,928,TRUE,20,mutton,11323,mutton,m^tN,4,3,1,2,2,mutton,2,5,579,5,24,10,40,157,4,389582,5,1
pill,MALD1_sR,MALD1,15351,406,words20,1,15351_20,582,TRUE,20,pill,12998,pill,pIl,36,32,4,25,11,pill,1,3,325,5,114,32,603,2625,802,12755636,4,1
plum,MALD1_sR,MALD1,15351,163,words20,1,15351_20,807,TRUE,20,plum,13168,plum,pl^m,10,7,3,3,7,plum,1,4,416,5,34,16,174,1375,118,2962013,5,1
ring,MALD1_sR,MALD1,15351,500,words20,1,15351_20,698,TRUE,20,ring,14838,ring,rIG,23,21,2,11,12,ring,1,3,509,5,82,39,4730,12222,1864,54346434,4,1
shun,MALD1_sR,MALD1,15351,791,words20,2,15351_20,661,TRUE,20,shun,15640,shun,S^n,19,18,1,15,4,shun,1,3,426,5,106,21,26,447,39,733434,4,1
sidle,MALD1_sR,MALD1,15351,351,words20,8,15351_20,1189,TRUE,20,sidle,15657,sidle,sYdL,7,5,2,3,4,sidle,2,5,510,6,38,13,54,77,4,55534,6,1
skit,MALD1_sR,MALD1,15351,200,words20,1,15351_20,874,TRUE,20,skit,15764,skit,skIt,14,12,2,4,10,skit,1,4,479,5,33,15,42,217,74,629356,5,1
solar,MALD1_sR,MALD1,15351,109,words20,1,15351_20,2195,TRUE,20,solar,15951,solar,solX,13,11,2,7,6,solar,2,4,499,6,89,15,236,9611,875,20427276,4,1
steam,MALD1_sR,MALD1,15351,234,words20,1,15351_20,868,TRUE,20,steam,16321,steam,stim,8,5,3,3,5,steam,1,4,484,6,39,13,686,4303,462,11148945,5,1
swing,MALD1_sR,MALD1,15351,628,words20,2,15351_20,749,TRUE,20,swing,16824,swing,swIG,12,10,2,5,7,swing,1,4,473,6,28,18,1325,6943,993,12736938,5,1
tax,MALD1_sR,MALD1,15351,181,words20,2,15351_20,814,TRUE,20,tax,17022,tax,t@ks,9,6,3,3,6,tax,1,4,433,4,95,36,742,40830,15658,146911524,5,1
trash,MALD1_sR,MALD1,15351,167,words20,1,15351_20,708,TRUE,20,trash,17648,trash,tr@S,7,6,1,4,3,trash,1,4,466,6,26,8,1146,4581,809,7097772,5,1
weeny,MALD1_sR,MALD1,15351,360,words20,1,15351_20,1294,FALSE,20,weeny,18884,weeny,wini,5,4,1,3,2,weeny,2,4,398,4,53,6,8,21,6,58568,4,
wren,MALD1_sR,MALD1,15351,700,words20,2,15351_20,1773,TRUE,20,wren,19196,wren,rEn,26,22,4,18,8,wren,1,3,313,5,138,17,19,944,13,1206315,4,1
ado,MALD1_sR,MALD1,15351,205,words45,7,15351_45,1040,TRUE,45,ado,276,ado,xdu,4,1,3,2,2,ado,2,3,347,4,18,29,77,253,60,1581917,4,1
allow,MALD1_sR,MALD1,15351,610,words45,1,15351_45,755,TRUE,45,allow,529,allow,xlW,5,4,1,2,3,allow,2,3,678,6,26,13,2263,25960,4805,67052832,4,1
bay,MALD1_sR,MALD1,15351,439,words45,2,15351_45,691,TRUE,45,bay,1621,bay,be,35,22,13,17,18,bay,1,2,262,4,168,46,1236,19167,2111,78975506,3,1
bird,MALD1_sR,MALD1,15351,715,words45,1,15351_45,562,TRUE,45,bird,1855,bird,bRd,22,18,4,12,10,bird,1,3,307,5,110,17,2318,11125,1383,29443460,4,1
bluff,MALD1_sR,MALD1,15351,394,words45,2,15351_45,824,TRUE,45,bluff,1969,bluff,bl^f,5,3,2,3,2,bluff,1,4,569,6,15,7,317,1200,141,3906971,5,1
carry,MALD1_sR,MALD1,15351,360,words45,2,15351_45,655,TRUE,45,carry,2685,carry,k@ri,19,15,4,9,10,carry,2,4,377,6,126,31,3361,17736,3255,33056477,5,1
case,MALD1_sR,MALD1,15351,458,words45,2,15351_45,682,TRUE,45,case,2701,case,kes,22,19,3,12,10,case,1,3,362,5,100,44,14403,98299,33259,235573247,4,1
cause,MALD1_sR,MALD1,15351,389,words45,1,15351_45,741,TRUE,45,cause,2786,cause,kcz,10,7,3,4,6,cause,1,3,464,6,105,18,15812,32020,8057,65907985,4,1
chef,MALD1_sR,MALD1,15351,62,words45,1,15351_45,687,TRUE,45,chef,3011,chef,SEf,8,6,2,4,4,chef,1,3,441,5,57,17,606,6096,1229,9722545,4,1
chronic,MALD1_sR,MALD1,15351,593,words45,1,15351_45,664,TRUE,45,chronic,3137,chronic,kranIk,3,1,2,2,1,chronic,2,6,431,8,9,1,252,6034,578,13653202,7,1
chum,MALD1_sR,MALD1,15351,57,words45,1,15351_45,721,TRUE,45,chum,3153,chum,C^m,16,14,2,11,5,chum,1,3,478,5,48,18,156,264,24,579859,4,1
clause,MALD1_sR,MALD1,15351,193,words45,1,15351_45,688,TRUE,45,clause,3259,clause,klcz,4,2,2,1,3,clause,1,4,639,7,35,11,143,2642,288,13906621,5,1
cower,MALD1_sR,MALD1,15351,789,words45,2,15351_45,956,TRUE,45,cower,4092,cower,kWX,9,7,2,5,4,cower,2,3,370,6,62,28,16,115,13,96406,4,1
crumple,MALD1_sR,MALD1,15351,568,words45,2,15351_45,715,TRUE,45,crumple,4254,crumple,kr^mpL,2,1,1,1,1,crumple,2,7,539,8,7,5,8,101,6,77197,8,1
define,MALD1_sR,MALD1,15351,774,words45,1,15351_45,708,TRUE,45,define,4584,define,dIfYn,4,3,1,2,2,define,2,5,598,7,10,11,318,6794,1190,36090823,6,2
father,MALD1_sR,MALD1,15351,738,words45,4,15351_45,645,TRUE,45,father,6260,father,faDX,6,5,1,5,1,father,2,4,418,7,15,14,28279,80659,15116,48581480,5,1
hide,MALD1_sR,MALD1,15351,170,words45,3,15351_45,804,TRUE,45,hide,7886,hide,hYd,21,19,2,15,6,hide,1,3,374,5,104,33,3554,7788,1521,27160697,4,1
how,MALD1_sR,MALD1,15351,794,words45,2,15351_45,827,TRUE,45,how,8076,how,hW,18,16,2,9,9,how,1,2,404,4,117,44,155867,351693,113754,571863383,3,1
job,MALD1_sR,MALD1,15351,479,words45,2,15351_45,563,TRUE,45,job,9345,job,Jab,19,18,1,13,6,job,1,3,388,4,53,24,21063,72084,21065,177720493,4,1
line,MALD1_sR,MALD1,15351,303,words45,1,15351_45,957,TRUE,45,line,9949,line,lYn,32,28,4,20,12,line,1,3,328,5,123,59,10515,70663,14206,280022418,4,1
lose,MALD1_sR,MALD1,15351,418,words45,2,15351_45,718,TRUE,45,lose,10124,lose,luz,17,14,3,9,8,lose,1,3,499,5,145,47,8382,21791,6458,24140555,4,1
lyre,MALD1_sR,MALD1,15351,325,words45,2,15351_45,583,TRUE,45,lyre,10211,lyre,lYr,25,23,2,15,10,lyre,1,3,344,4,64,18,4,98,4,300168,4,
nerve,MALD1_sR,MALD1,15351,324,words45,1,15351_45,950,TRUE,45,nerve,11503,nerve,nRv,6,5,1,5,1,nerve,1,3,419,6,27,8,1171,4198,612,6567853,4,1
off,MALD1_sR,MALD1,15351,111,words45,1,15351_45,563,TRUE,45,off,11875,off,cf,12,7,5,4,8,off,1,2,374,4,56,14,60155,190390,39513,284052274,3,1
pious,MALD1_sR,MALD1,15351,84,words45,7,15351_45,1043,TRUE,45,pious,13034,pious,pYxs,2,1,1,1,1,pious,2,4,524,6,19,3,48,610,30,713689,5,1
plank,MALD1_sR,MALD1,15351,300,words45,3,15351_45,689,TRUE,45,plank,13100,plank,pl@Gk,7,5,2,6,1,plank,1,5,430,6,14,15,104,947,115,1265284,6,1
plume,MALD1_sR,MALD1,15351,532,words45,3,15351_45,777,TRUE,45,plume,13172,plume,plum,7,5,2,5,2,plume,1,4,418,6,19,11,24,670,64,1269109,5,1
profession,MALD1_sR,MALD1,15351,413,words45,1,15351_45,815,TRUE,45,profession,13713,profession,prxfES|n,2,1,1,1,1,profession,3,8,465,11,3,3,461,6691,677,9208483,9,1
ranger,MALD1_sR,MALD1,15351,449,words45,1,15351_45,847,TRUE,45,ranger,14221,ranger,renJX,3,2,1,2,1,ranger,2,5,559,7,15,25,379,1853,207,5077778,6,2
reversal,MALD1_sR,MALD1,15351,769,words45,10,15351_45,698,TRUE,45,reversal,14750,reversal,rIvRsL,2,1,1,1,1,reversal,3,7,563,9,3,2,57,1381,226,2425317,8,3
seize,MALD1_sR,MALD1,15351,386,words45,1,15351_45,933,TRUE,45,seize,15375,seize,siz,22,17,5,9,13,seize,1,3,639,6,188,7,246,1716,411,1910081,4,1
shred,MALD1_sR,MALD1,15351,115,words45,1,15351_45,759,TRUE,45,shred,15617,shred,SrEd,8,6,2,6,2,shred,1,4,449,6,28,7,150,669,133,851931,5,1
sleep,MALD1_sR,MALD1,15351,12,words45,1,15351_45,708,TRUE,45,sleep,15798,sleep,slip,13,10,3,5,8,sleep,1,4,407,6,28,13,11625,21585,3484,29496833,5,1
slung,MALD1_sR,MALD1,15351,275,words45,2,15351_45,993,TRUE,45,slung,15842,slung,sl^G,14,11,3,6,8,slung,1,4,454,4,15,9,16,862,17,255720,4,1
solder,MALD1_sR,MALD1,15351,184,words45,1,15351_45,1076,TRUE,45,solder,15954,solder,sadX,7,6,1,4,3,solder,2,4,420,7,31,20,2,122,6,1709674,5,1
speck,MALD1_sR,MALD1,15351,153,words45,4,15351_45,802,TRUE,45,speck,16080,speck,spEk,8,7,1,1,7,speck,1,4,523,6,30,11,95,590,52,758600,5,1
tan,MALD1_sR,MALD1,15351,355,words45,6,15351_45,647,TRUE,45,tan,16959,tan,t@n,25,23,2,17,8,tan,1,3,428,4,113,59,439,2512,197,9751642,4,1
theory,MALD1_sR,MALD1,15351,637,words45,1,15351_45,632,TRUE,45,theory,17221,theory,TIri,7,5,2,6,1,theory,2,4,521,7,31,1,1459,23351,2194,50278307,5,1
wheat,MALD1_sR,MALD1,15351,531,words45,2,15351_45,697,TRUE,45,wheat,18921,wheat,hwit,9,8,1,3,6,wheat,1,3,359,6,97,6,293,4356,332,8685589,4,1
wove,MALD1_sR,MALD1,15351,383,words45,4,15351_45,640,TRUE,45,wove,19186,wove,wov,12,11,1,8,4,wove,1,3,430,5,24,15,12,341,10,198353,4,1
yawl,MALD1_sR,MALD1,15351,59,words45,1,15351_45,972,TRUE,45,yawl,19246,yawl,ycl,16,15,1,14,2,yawl,1,3,448,4,66,5,12,41,0,59825,4,1
any,MALD1_sR,MALD1,15362,162,words23,1,15362_23,922,TRUE,23,any,840,any,Eni,9,4,5,5,4,any,2,3,459,4,105,29,56068,219278,61618,710755610,4,1
bloater,MALD1_sR,MALD1,15362,92,words23,2,15362_23,1114,TRUE,23,bloater,1935,bloater,blotX,2,1,1,1,1,bloater,2,5,668,7,11,3,2,1,0,11706,5,2
branch,MALD1_sR,MALD1,15362,286,words23,3,15362_23,745,FALSE,23,branch,2140,branch,br@nC,5,3,2,3,2,branch,1,5,529,7,18,9,514,7650,982,36712567,6,1
butter,MALD1_sR,MALD1,15362,78,words23,3,15362_23,821,TRUE,23,butter,2377,butter,b^tX,13,10,3,9,4,butter,2,4,318,7,52,26,1042,10850,766,9727886,5,2
cold,MALD1_sR,MALD1,15362,415,words23,1,15362_23,822,TRUE,23,cold,3432,cold,kold,15,11,4,10,5,cold,1,4,408,5,76,29,6638,33636,4763,40844411,5,1
creole,MALD1_sR,MALD1,15362,248,words23,1,15362_23,1009,FALSE,23,creole,4169,creole,kriol,3,2,1,2,1,creole,2,5,491,7,6,2,55,681,56,2277595,6,
cutter,MALD1_sR,MALD1,15362,674,words23,5,15362_23,905,TRUE,23,cutter,4359,cutter,k^tX,12,9,3,9,3,cutter,2,4,350,7,51,19,239,1975,122,4273722,5,2
dumb,MALD1_sR,MALD1,15362,233,words23,1,15362_23,699,TRUE,23,dumb,5347,dumb,d^m,29,26,3,18,11,dumb,1,3,589,5,94,8,2395,2940,629,5413109,4,1
eve,MALD1_sR,MALD1,15362,429,words23,2,15362_23,923,TRUE,23,eve,5918,eve,iv,15,6,9,7,8,eve,1,2,515,4,53,23,1437,5435,952,13243304,3,1
fable,MALD1_sR,MALD1,15362,411,words23,1,15362_23,972,TRUE,23,fable,6143,fable,febL,11,10,1,9,2,fable,2,5,484,6,31,15,20,397,34,1678751,6,1
flurry,MALD1_sR,MALD1,15362,206,words23,5,15362_23,1604,TRUE,23,flurry,6594,flurry,flRi,3,1,2,1,2,flurry,2,4,507,6,21,6,24,909,119,610263,5,1
gibbon,MALD1_sR,MALD1,15362,473,words23,1,15362_23,884,TRUE,23,gibbon,7150,gibbon,gIb|n,2,1,1,1,1,gibbon,2,5,363,7,22,4,12,121,20,481964,6,1
heap,MALD1_sR,MALD1,15362,633,words23,2,15362_23,1358,TRUE,23,heap,7726,heap,hip,22,21,1,16,6,heap,1,3,351,5,69,16,249,1373,89,2806006,4,1
ideal,MALD1_sR,MALD1,15362,651,words23,2,15362_23,1184,TRUE,23,ideal,8232,ideal,Ydil,3,1,2,1,2,ideal,2,4,503,6,17,4,374,8795,598,26049328,5,1
inspect,MALD1_sR,MALD1,15362,568,words23,1,15362_23,1074,TRUE,23,inspect,8916,inspect,InspEkt,2,1,1,1,1,inspect,2,7,538,8,4,2,130,1217,171,3286565,8,1
intern,MALD1_sR,MALD1,15362,457,words23,1,15362_23,735,TRUE,23,intern,9041,intern,IntRn,5,1,4,1,4,intern,2,5,488,7,8,2,232,981,113,3655396,6,1
jaw,MALD1_sR,MALD1,15362,91,words23,1,15362_23,1340,TRUE,23,jaw,9300,jaw,Jc,15,14,1,11,4,jaw,1,2,399,4,59,28,364,3227,239,2798439,3,1
keep,MALD1_sR,MALD1,15362,166,words23,5,15362_23,845,TRUE,23,keep,9457,keep,kip,21,19,2,18,3,keep,1,3,335,5,109,19,35846,85894,21749,119614141,4,1
latin,MALD1_sR,MALD1,15362,498,words23,3,15362_23,726,TRUE,23,latin,9695,Latin,l@tN,8,6,2,7,1,latin,2,5,357,6,57,14,561,9750,921,36551294,6,
link,MALD1_sR,MALD1,15362,497,words23,2,15362_23,719,TRUE,23,link,9967,link,lIGk,17,10,7,14,3,link,1,4,330,5,58,41,609,9673,1333,240412757,5,1
mirth,MALD1_sR,MALD1,15362,34,words23,1,15362_23,1206,FALSE,23,mirth,10898,mirth,mRT,13,11,2,10,3,mirth,1,3,484,5,55,10,11,211,12,387672,4,1
okay,MALD1_sR,MALD1,15362,422,words23,1,15362_23,678,TRUE,23,okay,11902,okay,oke,6,3,3,3,3,okay,2,3,405,5,41,10,102320,24970,10346,15370861,4,1
plaque,MALD1_sR,MALD1,15362,781,words23,1,15362_23,638,TRUE,23,plaque,13106,plaque,pl@k,12,9,3,6,6,plaque,1,4,375,7,35,3,106,1211,82,3850588,5,1
rank,MALD1_sR,MALD1,15362,741,words23,1,15362_23,753,TRUE,23,rank,14222,rank,r@Gk,20,10,10,16,4,rank,1,4,373,5,57,36,433,5078,457,36409068,5,1
rib,MALD1_sR,MALD1,15362,757,words23,2,15362_23,775,TRUE,23,rib,14796,rib,rIb,19,18,1,8,11,rib,1,3,343,4,70,28,301,1322,121,2745230,4,1
roof,MALD1_sR,MALD1,15362,326,words23,1,15362_23,656,TRUE,23,roof,14909,roof,ruf,13,11,2,5,8,roof,1,3,389,5,80,14,1818,8727,1142,14811067,4,1
rot,MALD1_sR,MALD1,15362,77,words23,2,15362_23,1186,TRUE,23,rot,14928,rot,rat,29,26,3,25,4,rot,1,3,405,4,122,50,394,1021,81,2043647,4,1
scum,MALD1_sR,MALD1,15362,784,words23,4,15362_23,889,TRUE,23,scum,15308,scum,sk^m,9,6,3,5,4,scum,1,4,574,5,22,10,505,399,60,961366,5,1
sharp,MALD1_sR,MALD1,15362,528,words23,3,15362_23,982,TRUE,23,sharp,15534,sharp,Sarp,5,4,1,2,3,sharp,1,4,466,6,38,17,1213,11487,987,24906789,5,1
slush,MALD1_sR,MALD1,15362,600,words23,1,15362_23,998,TRUE,23,slush,15845,slush,sl^S,10,9,1,4,6,slush,1,4,569,6,16,8,28,319,39,389608,5,1
solely,MALD1_sR,MALD1,15362,503,words23,2,15362_23,1073,TRUE,23,solely,15957,solely,soli,11,10,1,7,4,solely,3,5,514,5,8,4,89,3477,301,10091700,4,2
stern,MALD1_sR,MALD1,15362,603,words23,4,15362_23,767,TRUE,23,stern,16352,stern,stRn,10,5,5,4,6,stern,1,4,507,6,29,11,327,3975,1003,4643904,5,1
stroll,MALD1_sR,MALD1,15362,687,words23,1,15362_23,853,TRUE,23,stroll,16494,stroll,strol,6,4,2,2,4,stroll,1,5,576,7,21,8,211,1337,66,1693118,6,1
taps,MALD1_sR,MALD1,15362,288,words23,1,15362_23,873,TRUE,23,taps,16987,taps,t@ps,7,4,3,5,2,taps,1,4,446,5,42,29,130,994,111,2690265,5,2
trifle,MALD1_sR,MALD1,15362,496,words23,1,15362_23,982,TRUE,23,trifle,17714,trifle,trYfL,4,2,2,2,2,trifle,2,6,475,7,6,4,107,299,12,354770,7,1
vinyl,MALD1_sR,MALD1,15362,106,words23,1,15362_23,1031,TRUE,23,vinyl,18576,vinyl,vYnL,7,5,2,3,4,vinyl,2,5,423,5,12,1,63,1072,65,17011205,5,1
wrench,MALD1_sR,MALD1,15362,553,words23,3,15362_23,722,TRUE,23,wrench,19197,wrench,rEnC,10,5,5,6,4,wrench,1,4,400,7,32,5,202,678,54,2044734,5,1
aloe,MALD1_sR,MALD1,15364,442,words29,1,15364_29,1064,TRUE,29,aloe,542,aloe,@lo,20,11,9,14,6,aloe,2,3,519,4,64,12,15,158,10,1897405,4,1
awful,MALD1_sR,MALD1,15364,413,words29,1,15364_29,1170,TRUE,29,awful,1386,awful,cfL,4,3,1,1,3,awful,2,4,362,6,9,1,3234,6138,2394,5217620,4,1
barber,MALD1_sR,MALD1,15364,411,words29,1,15364_29,779,TRUE,29,barber,1534,barber,barbX,6,4,2,2,4,barber,2,5,469,7,36,22,279,1653,337,4241984,6,1
berry,MALD1_sR,MALD1,15364,382,words29,1,15364_29,711,TRUE,29,berry,1759,berry,bEri,13,10,3,7,6,berry,2,4,374,6,144,23,178,2860,420,7552546,5,1
bilge,MALD1_sR,MALD1,15364,15,words29,1,15364_29,939,TRUE,29,bilge,1820,bilge,bIlJ,8,7,1,1,7,bilge,1,4,384,6,25,7,56,145,4,412304,4,1
brat,MALD1_sR,MALD1,15364,532,words29,1,15364_29,483,FALSE,29,brat,2147,brat,br@t,11,8,3,2,9,brat,1,4,259,5,47,26,317,375,50,889407,5,1
coin,MALD1_sR,MALD1,15364,757,words29,1,15364_29,633,TRUE,29,coin,3424,coin,kOn,14,13,1,11,3,coin,1,3,339,5,87,20,497,2093,305,10097574,4,2
cork,MALD1_sR,MALD1,15364,247,words29,1,15364_29,782,TRUE,29,cork,3960,cork,kork,11,9,2,4,7,cork,1,4,410,5,80,24,146,802,53,5504784,5,1
curt,MALD1_sR,MALD1,15364,500,words29,2,15364_29,939,TRUE,29,curt,4333,curt,kRt,26,21,5,17,9,curt,1,3,303,5,99,19,136,1162,120,1581069,4,1
dorm,MALD1_sR,MALD1,15364,738,words29,2,15364_29,879,TRUE,29,dorm,5194,dorm,dorm,5,4,1,3,2,dorm,1,4,446,5,38,16,369,1284,331,2037885,5,
formal,MALD1_sR,MALD1,15364,116,words29,1,15364_29,1080,TRUE,29,formal,6700,formal,formL,3,2,1,1,2,formal,2,6,429,7,8,5,424,10117,844,22274656,7,1
gourd,MALD1_sR,MALD1,15364,172,words29,1,15364_29,815,TRUE,29,gourd,7317,gourd,gord,16,14,2,10,6,gourd,1,4,389,6,51,3,24,355,7,502106,5,1
hid,MALD1_sR,MALD1,15364,45,words29,4,15364_29,790,TRUE,29,hid,7883,hid,hId,25,23,2,15,10,hid,1,3,368,4,63,30,596,1921,255,2213796,4,1
hung,MALD1_sR,MALD1,15364,136,words29,3,15364_29,844,TRUE,29,hung,8129,hung,h^G,18,17,1,8,10,hung,1,3,479,5,50,29,1436,8751,734,8543618,4,1
jumble,MALD1_sR,MALD1,15364,717,words29,1,15364_29,817,TRUE,29,jumble,9407,jumble,J^mbL,7,6,1,6,1,jumble,2,6,422,7,12,9,16,496,20,715330,7,1
knit,MALD1_sR,MALD1,15364,790,words29,3,15364_29,688,TRUE,29,knit,9537,knit,nIt,28,27,1,22,6,knit,1,3,325,5,85,11,97,1527,177,5113070,4,1
lighter,MALD1_sR,MALD1,15364,452,words29,5,15364_29,920,TRUE,29,lighter,9912,lighter,lYtX,14,12,2,8,6,lighter,2,4,401,8,57,11,457,3849,419,6287712,5,2
lion,MALD1_sR,MALD1,15364,350,words29,1,15364_29,627,TRUE,29,lion,9975,lion,lY|n,5,2,3,4,1,lion,2,4,354,5,53,24,783,3327,441,11536320,5,1
loaf,MALD1_sR,MALD1,15364,146,words29,2,15364_29,689,TRUE,29,loaf,10047,loaf,lof,16,14,2,6,10,loaf,1,3,425,5,51,7,228,1330,112,1599779,4,1
major,MALD1_sR,MALD1,15364,493,words29,3,15364_29,762,TRUE,29,major,10300,major,meJX,4,2,2,2,2,major,2,4,502,6,32,5,5343,61820,12480,122596391,5,1
mink,MALD1_sR,MALD1,15364,657,words29,1,15364_29,802,TRUE,29,mink,10879,mink,mIGk,13,11,2,11,2,mink,1,4,329,5,58,35,189,435,58,1000653,5,1
mood,MALD1_sR,MALD1,15364,472,words29,1,15364_29,860,TRUE,29,mood,11114,mood,mud,17,15,2,11,6,mood,1,3,433,5,61,20,1736,8366,1333,11871925,4,1
plaster,MALD1_sR,MALD1,15364,793,words29,1,15364_29,916,TRUE,29,plaster,13109,plaster,pl@stX,5,2,3,2,3,plaster,2,6,503,8,12,9,134,1247,58,1811197,7,1
quail,MALD1_sR,MALD1,15364,737,words29,1,15364_29,781,TRUE,29,quail,14055,quail,kwel,7,5,2,3,4,quail,1,4,370,6,29,6,68,652,33,1278967,5,1
reduce,MALD1_sR,MALD1,15364,492,words29,2,15364_29,749,TRUE,29,reduce,14421,reduce,rIdus,4,3,1,3,1,reduce,2,5,501,7,5,9,219,19183,2508,39832456,6,1
remote,MALD1_sR,MALD1,15364,287,words29,3,15364_29,794,TRUE,29,remote,14561,remote,rImot,2,1,1,1,1,remote,2,5,464,7,3,3,713,7447,886,50689240,6,1
shop,MALD1_sR,MALD1,15364,595,words29,1,15364_29,856,TRUE,29,shop,15597,shop,Sap,16,15,1,12,4,shop,1,3,384,5,96,20,2731,15046,1834,212807264,4,1
small,MALD1_sR,MALD1,15364,769,words29,2,15364_29,803,TRUE,29,small,15849,small,smcl,5,4,1,2,3,small,1,4,537,6,19,10,6373,102490,12092,208378995,5,1
tank,MALD1_sR,MALD1,15364,708,words29,1,15364_29,850,TRUE,29,tank,16970,tank,t@Gk,16,11,5,11,5,tank,1,4,327,5,48,29,1306,7358,1306,22073920,5,1
thy,MALD1_sR,MALD1,15364,457,words29,2,15364_29,1006,TRUE,29,thy,17331,thy,DY,23,21,2,17,6,thy,1,2,433,4,92,18,1243,899,131,10020384,3,1
thyme,MALD1_sR,MALD1,15364,158,words29,2,15364_29,580,TRUE,29,thyme,17332,thyme,tYm,21,19,2,11,10,thyme,1,3,348,5,32,3,10,1733,55,1007823,3,1
tongue,MALD1_sR,MALD1,15364,584,words29,1,15364_29,608,TRUE,29,tongue,17467,tongue,t^G,16,15,1,10,6,tongue,1,3,335,7,41,4,1589,6661,422,10002790,4,1
arrange,MALD1_sR,MALD1,15365,321,words19,1,15365_19,942,TRUE,19,arrange,1056,arrange,xrenJ,3,1,2,2,1,arrange,2,4,646,8,11,3,791,3162,243,7727860,5,1
buckle,MALD1_sR,MALD1,15365,533,words19,1,15365_19,1199,TRUE,19,buckle,2267,buckle,b^kL,6,5,1,3,3,buckle,2,5,372,7,32,13,257,1101,122,2898037,6,1
castor,MALD1_sR,MALD1,15365,78,words19,5,15365_19,1449,TRUE,19,castor,2725,castor,k@stX,6,4,2,5,1,castor,2,5,478,7,50,9,67,831,186,971100,6,1
common,MALD1_sR,MALD1,15365,180,words19,1,15365_19,767,TRUE,19,common,3539,common,kamxn,3,1,2,1,2,common,2,5,367,7,61,2,2275,39834,4956,107843433,6,1
cool,MALD1_sR,MALD1,15365,395,words19,2,15365_19,635,TRUE,19,cool,3917,cool,kul,22,18,4,17,5,cool,1,3,359,5,138,20,9990,20803,3155,56494542,4,1
cymbal,MALD1_sR,MALD1,15365,666,words19,1,15365_19,808,TRUE,19,cymbal,4378,cymbal,sImbL,4,3,1,3,1,cymbal,2,6,505,7,14,1,13,53,6,611557,7,1
dove,MALD1_sR,MALD1,15365,335,words19,2,15365_19,1017,TRUE,19,dove,5216,dove,dov,16,14,2,7,9,dove,1,3,420,5,47,30,284,1708,117,3254883,4,1
frail,MALD1_sR,MALD1,15365,171,words19,1,15365_19,814,TRUE,19,frail,6759,frail,frel,11,8,3,6,5,frail,1,4,579,6,47,9,81,1090,119,703525,5,1
futile,MALD1_sR,MALD1,15365,547,words19,4,15365_19,1764,TRUE,19,futile,6913,futile,fyutL,2,1,1,1,1,futile,2,6,529,6,3,1,82,1052,94,956638,5,1
goat,MALD1_sR,MALD1,15365,589,words19,3,15365_19,679,TRUE,19,goat,7260,goat,got,26,20,6,19,7,goat,1,3,327,5,73,20,537,2377,145,5235987,4,1
grease,MALD1_sR,MALD1,15365,97,words19,2,15365_19,728,TRUE,19,grease,7393,grease,gris,14,12,2,2,12,grease,1,4,417,7,65,9,354,1692,120,3132383,5,1
hard,MALD1_sR,MALD1,15365,104,words19,1,15365_19,762,TRUE,19,hard,7651,hard,hard,18,16,2,10,8,hard,1,4,458,5,61,40,15700,81753,20615,130070107,5,1
heal,MALD1_sR,MALD1,15365,382,words19,1,15365_19,1276,FALSE,19,heal,7724,heal,hil,29,26,3,23,6,heal,1,3,370,5,154,28,578,2422,556,3771118,4,1
hurtle,MALD1_sR,MALD1,15365,145,words19,2,15365_19,1401,TRUE,19,hurtle,8143,hurtle,hRtL,6,5,1,4,2,hurtle,2,5,314,6,26,6,1,54,0,48093,5,1
jelly,MALD1_sR,MALD1,15365,647,words19,2,15365_19,1032,TRUE,19,jelly,9310,jelly,JEli,5,4,1,3,2,jelly,2,4,381,6,88,10,363,1635,176,3699680,5,1
leave,MALD1_sR,MALD1,15365,668,words19,1,15365_19,877,TRUE,19,leave,9758,leave,liv,26,21,5,11,15,leave,1,3,399,6,98,18,28596,45947,11722,70962325,4,1
limb,MALD1_sR,MALD1,15365,767,words19,1,15365_19,791,TRUE,19,limb,9929,limb,lIm,20,17,3,11,9,limb,1,3,333,5,87,14,238,2211,237,2360178,4,1
locker,MALD1_sR,MALD1,15365,699,words19,2,15365_19,689,TRUE,19,locker,10070,locker,lakX,9,8,1,5,4,locker,2,4,442,7,60,21,815,3030,447,3985812,5,2
mall,MALD1_sR,MALD1,15365,195,words19,2,15365_19,833,TRUE,19,mall,10335,mall,mcl,24,20,4,20,4,mall,1,3,374,5,114,39,964,4610,786,15177039,4,1
middle,MALD1_sR,MALD1,15365,111,words19,8,15365_19,620,TRUE,19,middle,10797,middle,mIdL,12,11,1,7,5,middle,2,5,387,7,45,11,4549,54702,13205,70166019,6,1
mosque,MALD1_sR,MALD1,15365,408,words19,2,15365_19,945,TRUE,19,mosque,11178,mosque,mask,4,3,1,2,2,mosque,1,4,461,7,19,2,60,2153,695,1969984,5,1
mountain,MALD1_sR,MALD1,15365,346,words19,1,15365_19,783,TRUE,19,mountain,11203,mountain,mWntN,2,1,1,1,1,mountain,2,6,507,9,7,2,1805,19965,1722,54172908,7,1
nod,MALD1_sR,MALD1,15365,525,words19,1,15365_19,828,TRUE,19,nod,11601,nod,nad,20,15,5,12,8,nod,1,3,459,4,68,27,203,2867,181,2193669,4,1
petty,MALD1_sR,MALD1,15365,773,words19,1,15365_19,682,TRUE,19,petty,12845,petty,pEti,9,8,1,6,3,petty,2,4,263,5,69,21,438,1977,394,3195594,5,2
pillow,MALD1_sR,MALD1,15365,459,words19,1,15365_19,745,TRUE,19,pillow,13004,pillow,pIlo,5,4,1,3,2,pillow,2,4,395,7,43,5,581,2759,255,6272168,5,1
shone,MALD1_sR,MALD1,15365,762,words19,1,15365_19,858,TRUE,19,shone,15595,shone,Son,23,20,3,17,6,shone,1,3,393,6,102,22,30,1252,18,709347,4,1
shrine,MALD1_sR,MALD1,15365,24,words19,1,15365_19,941,TRUE,19,shrine,15626,shrine,SrYn,5,4,1,3,2,shrine,1,4,619,7,24,7,151,1565,175,2302579,5,1
stint,MALD1_sR,MALD1,15365,64,words19,2,15365_19,976,TRUE,19,stint,16382,stint,stInt,3,2,1,2,1,stint,1,5,526,6,14,12,38,1080,69,856043,6,1
stuck,MALD1_sR,MALD1,15365,739,words19,1,15365_19,888,TRUE,19,stuck,16517,stuck,st^k,16,11,5,3,13,stuck,1,4,557,6,45,16,3399,10094,1848,9120841,5,1
tart,MALD1_sR,MALD1,15365,359,words19,2,15365_19,817,TRUE,19,tart,17000,tart,tart,14,8,6,9,5,tart,1,4,322,5,37,30,122,1336,78,1363526,5,1
those,MALD1_sR,MALD1,15365,88,words19,1,15365_19,769,TRUE,19,those,17284,those,Doz,9,8,1,8,1,those,1,3,538,4,71,10,38404,244236,71088,270022703,3,1
throng,MALD1_sR,MALD1,15365,11,words19,1,15365_19,1127,TRUE,19,throng,17311,throng,TrcG,4,2,2,3,1,throng,1,4,653,7,8,3,16,471,24,330339,5,1
tight,MALD1_sR,MALD1,15365,752,words19,1,15365_19,974,TRUE,19,tight,17353,tight,tYt,30,25,5,18,12,tight,1,3,267,6,91,13,2597,11930,1415,17983507,4,1
tonal,MALD1_sR,MALD1,15365,332,words19,1,15365_19,1059,FALSE,19,tonal,17462,tonal,tonL,5,3,2,3,2,tonal,2,5,469,6,9,4,3,431,14,707113,4,2
triple,MALD1_sR,MALD1,15365,704,words19,7,15365_19,1062,TRUE,19,triple,17732,triple,trIpL,5,2,3,3,2,triple,2,6,509,7,14,9,479,3554,487,12479150,7,1
wing,MALD1_sR,MALD1,15365,96,words19,1,15365_19,894,TRUE,19,wing,19075,wing,wIG,18,15,3,8,10,wing,1,3,479,5,90,40,1032,8370,2064,17354423,4,1
baby,MALD1_sR,MALD1,15366,607,words20,3,15366_20,763,TRUE,20,baby,1412,baby,bebi,5,4,1,3,2,baby,2,4,372,5,55,17,25978,34012,8993,117716269,5,1
blood,MALD1_sR,MALD1,15366,419,words20,1,15366_20,0,FALSE,20,blood,1942,blood,bl^d,7,6,1,2,5,blood,1,4,369,6,20,8,9492,36787,5666,61356375,5,1
cave,MALD1_sR,MALD1,15366,64,words20,1,15366_20,875,TRUE,20,cave,2797,cave,kev,22,19,3,12,10,cave,1,3,470,5,75,36,713,4364,413,7669404,4,1
corn,MALD1_sR,MALD1,15366,236,words20,1,15366_20,710,TRUE,20,corn,3962,corn,korn,20,14,6,11,9,corn,1,4,410,5,93,38,725,9077,780,10726347,5,1
curry,MALD1_sR,MALD1,15366,171,words20,1,15366_20,926,TRUE,20,curry,4329,curry,kRi,14,10,4,5,9,curry,2,3,409,6,106,18,124,2144,319,4030691,4,2
curve,MALD1_sR,MALD1,15366,133,words20,7,15366_20,688,TRUE,20,curve,4338,curve,kRv,13,12,1,6,7,curve,1,3,468,6,52,10,235,3929,424,11071742,4,1
dally,MALD1_sR,MALD1,15366,157,words20,3,15366_20,881,TRUE,20,dally,4410,dally,d@li,14,13,1,13,1,dally,2,4,499,5,80,24,39,100,2,142954,5,1
fatal,MALD1_sR,MALD1,15366,290,words20,1,15366_20,720,TRUE,20,fatal,6253,fatal,fetL,7,5,2,3,4,fatal,2,5,360,6,9,7,362,3232,719,6786528,6,2
flunk,MALD1_sR,MALD1,15366,107,words20,1,15366_20,741,TRUE,20,flunk,6587,flunk,fl^Gk,6,3,3,4,2,flunk,1,5,335,6,14,10,92,81,22,81741,6,1
garb,MALD1_sR,MALD1,15366,357,words20,2,15366_20,655,TRUE,20,garb,6997,garb,garb,4,2,2,1,3,garb,1,4,394,5,28,26,16,469,37,614648,5,1
german,MALD1_sR,MALD1,15366,134,words20,8,15366_20,685,TRUE,20,german,7117,german,JRmxn,5,4,1,4,1,german,2,5,380,7,47,30,1624,15726,1764,53712683,6,2
hack,MALD1_sR,MALD1,15366,130,words20,4,15366_20,1472,TRUE,20,hack,7559,hack,h@k,30,27,3,17,13,hack,1,3,412,5,129,34,436,928,91,6547946,4,1
hulk,MALD1_sR,MALD1,15366,120,words20,2,15366_20,784,TRUE,20,hulk,8096,hulk,h^lk,5,4,1,2,3,hulk,1,4,379,5,21,11,208,407,77,2113535,5,1
jewel,MALD1_sR,MALD1,15366,521,words20,2,15366_20,1012,TRUE,20,jewel,9326,jewel,JuL,6,5,1,2,4,jewel,1,3,619,6,70,5,369,1380,162,5603871,4,1
judge,MALD1_sR,MALD1,15366,257,words20,1,15366_20,559,TRUE,20,judge,9388,judge,J^J,6,5,1,4,2,judge,1,3,470,6,16,11,4063,26228,11590,30906773,4,1
mogul,MALD1_sR,MALD1,15366,684,words20,2,15366_20,2982,FALSE,20,mogul,11017,mogul,mogL,4,3,1,1,3,mogul,2,5,499,6,30,4,47,891,159,753098,6,1
mutton,MALD1_sR,MALD1,15366,754,words20,1,15366_20,2009,TRUE,20,mutton,11323,mutton,m^tN,4,3,1,2,2,mutton,2,5,579,5,24,10,40,157,4,389582,5,1
pill,MALD1_sR,MALD1,15366,580,words20,1,15366_20,915,TRUE,20,pill,12998,pill,pIl,36,32,4,25,11,pill,1,3,325,5,114,32,603,2625,802,12755636,4,1
plum,MALD1_sR,MALD1,15366,28,words20,1,15366_20,724,TRUE,20,plum,13168,plum,pl^m,10,7,3,3,7,plum,1,4,416,5,34,16,174,1375,118,2962013,5,1
ring,MALD1_sR,MALD1,15366,496,words20,1,15366_20,731,TRUE,20,ring,14838,ring,rIG,23,21,2,11,12,ring,1,3,509,5,82,39,4730,12222,1864,54346434,4,1
shun,MALD1_sR,MALD1,15366,129,words20,3,15366_20,825,TRUE,20,shun,15640,shun,S^n,19,18,1,15,4,shun,1,3,426,5,106,21,26,447,39,733434,4,1
sidle,MALD1_sR,MALD1,15366,741,words20,3,15366_20,1746,FALSE,20,sidle,15657,sidle,sYdL,7,5,2,3,4,sidle,2,5,510,6,38,13,54,77,4,55534,6,1
skit,MALD1_sR,MALD1,15366,240,words20,1,15366_20,875,TRUE,20,skit,15764,skit,skIt,14,12,2,4,10,skit,1,4,479,5,33,15,42,217,74,629356,5,1
solar,MALD1_sR,MALD1,15366,623,words20,1,15366_20,2408,TRUE,20,solar,15951,solar,solX,13,11,2,7,6,solar,2,4,499,6,89,15,236,9611,875,20427276,4,1
steam,MALD1_sR,MALD1,15366,570,words20,1,15366_20,1536,TRUE,20,steam,16321,steam,stim,8,5,3,3,5,steam,1,4,484,6,39,13,686,4303,462,11148945,5,1
swing,MALD1_sR,MALD1,15366,772,words20,2,15366_20,1500,TRUE,20,swing,16824,swing,swIG,12,10,2,5,7,swing,1,4,473,6,28,18,1325,6943,993,12736938,5,1
tax,MALD1_sR,MALD1,15366,324,words20,1,15366_20,830,TRUE,20,tax,17022,tax,t@ks,9,6,3,3,6,tax,1,4,433,4,95,36,742,40830,15658,146911524,5,1
trash,MALD1_sR,MALD1,15366,739,words20,1,15366_20,707,TRUE,20,trash,17648,trash,tr@S,7,6,1,4,3,trash,1,4,466,6,26,8,1146,4581,809,7097772,5,1
weeny,MALD1_sR,MALD1,15366,15,words20,1,15366_20,1141,TRUE,20,weeny,18884,weeny,wini,5,4,1,3,2,weeny,2,4,398,4,53,6,8,21,6,58568,4,
wren,MALD1_sR,MALD1,15366,742,words20,4,15366_20,1903,TRUE,20,wren,19196,wren,rEn,26,22,4,18,8,wren,1,3,313,5,138,17,19,944,13,1206315,4,1
arrange,MALD1_sR,MALD1,15367,731,words19,1,15367_19,775,TRUE,19,arrange,1056,arrange,xrenJ,3,1,2,2,1,arrange,2,4,646,8,11,3,791,3162,243,7727860,5,1
buckle,MALD1_sR,MALD1,15367,752,words19,2,15367_19,664,TRUE,19,buckle,2267,buckle,b^kL,6,5,1,3,3,buckle,2,5,372,7,32,13,257,1101,122,2898037,6,1
castor,MALD1_sR,MALD1,15367,798,words19,2,15367_19,781,TRUE,19,castor,2725,castor,k@stX,6,4,2,5,1,castor,2,5,478,7,50,9,67,831,186,971100,6,1
common,MALD1_sR,MALD1,15367,239,words19,1,15367_19,697,TRUE,19,common,3539,common,kamxn,3,1,2,1,2,common,2,5,367,7,61,2,2275,39834,4956,107843433,6,1
cool,MALD1_sR,MALD1,15367,124,words19,1,15367_19,571,TRUE,19,cool,3917,cool,kul,22,18,4,17,5,cool,1,3,359,5,138,20,9990,20803,3155,56494542,4,1
cymbal,MALD1_sR,MALD1,15367,328,words19,2,15367_19,699,TRUE,19,cymbal,4378,cymbal,sImbL,4,3,1,3,1,cymbal,2,6,505,7,14,1,13,53,6,611557,7,1
dove,MALD1_sR,MALD1,15367,778,words19,1,15367_19,920,TRUE,19,dove,5216,dove,dov,16,14,2,7,9,dove,1,3,420,5,47,30,284,1708,117,3254883,4,1
frail,MALD1_sR,MALD1,15367,210,words19,1,15367_19,785,TRUE,19,frail,6759,frail,frel,11,8,3,6,5,frail,1,4,579,6,47,9,81,1090,119,703525,5,1
futile,MALD1_sR,MALD1,15367,406,words19,1,15367_19,772,TRUE,19,futile,6913,futile,fyutL,2,1,1,1,1,futile,2,6,529,6,3,1,82,1052,94,956638,5,1
goat,MALD1_sR,MALD1,15367,470,words19,3,15367_19,808,TRUE,19,goat,7260,goat,got,26,20,6,19,7,goat,1,3,327,5,73,20,537,2377,145,5235987,4,1
grease,MALD1_sR,MALD1,15367,782,words19,3,15367_19,607,TRUE,19,grease,7393,grease,gris,14,12,2,2,12,grease,1,4,417,7,65,9,354,1692,120,3132383,5,1
hard,MALD1_sR,MALD1,15367,319,words19,1,15367_19,646,TRUE,19,hard,7651,hard,hard,18,16,2,10,8,hard,1,4,458,5,61,40,15700,81753,20615,130070107,5,1
heal,MALD1_sR,MALD1,15367,6,words19,2,15367_19,774,TRUE,19,heal,7724,heal,hil,29,26,3,23,6,heal,1,3,370,5,154,28,578,2422,556,3771118,4,1
hurtle,MALD1_sR,MALD1,15367,154,words19,1,15367_19,635,TRUE,19,hurtle,8143,hurtle,hRtL,6,5,1,4,2,hurtle,2,5,314,6,26,6,1,54,0,48093,5,1
jelly,MALD1_sR,MALD1,15367,200,words19,2,15367_19,681,TRUE,19,jelly,9310,jelly,JEli,5,4,1,3,2,jelly,2,4,381,6,88,10,363,1635,176,3699680,5,1
leave,MALD1_sR,MALD1,15367,89,words19,2,15367_19,664,TRUE,19,leave,9758,leave,liv,26,21,5,11,15,leave,1,3,399,6,98,18,28596,45947,11722,70962325,4,1
limb,MALD1_sR,MALD1,15367,276,words19,2,15367_19,605,TRUE,19,limb,9929,limb,lIm,20,17,3,11,9,limb,1,3,333,5,87,14,238,2211,237,2360178,4,1
locker,MALD1_sR,MALD1,15367,384,words19,1,15367_19,677,TRUE,19,locker,10070,locker,lakX,9,8,1,5,4,locker,2,4,442,7,60,21,815,3030,447,3985812,5,2
mall,MALD1_sR,MALD1,15367,372,words19,3,15367_19,589,TRUE,19,mall,10335,mall,mcl,24,20,4,20,4,mall,1,3,374,5,114,39,964,4610,786,15177039,4,1
middle,MALD1_sR,MALD1,15367,235,words19,1,15367_19,540,TRUE,19,middle,10797,middle,mIdL,12,11,1,7,5,middle,2,5,387,7,45,11,4549,54702,13205,70166019,6,1
mosque,MALD1_sR,MALD1,15367,478,words19,1,15367_19,785,TRUE,19,mosque,11178,mosque,mask,4,3,1,2,2,mosque,1,4,461,7,19,2,60,2153,695,1969984,5,1
mountain,MALD1_sR,MALD1,15367,371,words19,2,15367_19,780,TRUE,19,mountain,11203,mountain,mWntN,2,1,1,1,1,mountain,2,6,507,9,7,2,1805,19965,1722,54172908,7,1
nod,MALD1_sR,MALD1,15367,175,words19,1,15367_19,807,TRUE,19,nod,11601,nod,nad,20,15,5,12,8,nod,1,3,459,4,68,27,203,2867,181,2193669,4,1
petty,MALD1_sR,MALD1,15367,531,words19,5,15367_19,615,TRUE,19,petty,12845,petty,pEti,9,8,1,6,3,petty,2,4,263,5,69,21,438,1977,394,3195594,5,2
pillow,MALD1_sR,MALD1,15367,168,words19,1,15367_19,624,TRUE,19,pillow,13004,pillow,pIlo,5,4,1,3,2,pillow,2,4,395,7,43,5,581,2759,255,6272168,5,1
shone,MALD1_sR,MALD1,15367,102,words19,2,15367_19,1162,TRUE,19,shone,15595,shone,Son,23,20,3,17,6,shone,1,3,393,6,102,22,30,1252,18,709347,4,1
shrine,MALD1_sR,MALD1,15367,340,words19,1,15367_19,832,TRUE,19,shrine,15626,shrine,SrYn,5,4,1,3,2,shrine,1,4,619,7,24,7,151,1565,175,2302579,5,1
stint,MALD1_sR,MALD1,15367,748,words19,2,15367_19,1331,TRUE,19,stint,16382,stint,stInt,3,2,1,2,1,stint,1,5,526,6,14,12,38,1080,69,856043,6,1
stuck,MALD1_sR,MALD1,15367,604,words19,3,15367_19,808,TRUE,19,stuck,16517,stuck,st^k,16,11,5,3,13,stuck,1,4,557,6,45,16,3399,10094,1848,9120841,5,1
tart,MALD1_sR,MALD1,15367,563,words19,2,15367_19,801,TRUE,19,tart,17000,tart,tart,14,8,6,9,5,tart,1,4,322,5,37,30,122,1336,78,1363526,5,1
those,MALD1_sR,MALD1,15367,494,words19,1,15367_19,636,TRUE,19,those,17284,those,Doz,9,8,1,8,1,those,1,3,538,4,71,10,38404,244236,71088,270022703,3,1
throng,MALD1_sR,MALD1,15367,345,words19,3,15367_19,1439,TRUE,19,throng,17311,throng,TrcG,4,2,2,3,1,throng,1,4,653,7,8,3,16,471,24,330339,5,1
tight,MALD1_sR,MALD1,15367,458,words19,1,15367_19,648,TRUE,19,tight,17353,tight,tYt,30,25,5,18,12,tight,1,3,267,6,91,13,2597,11930,1415,17983507,4,1
tonal,MALD1_sR,MALD1,15367,689,words19,1,15367_19,725,TRUE,19,tonal,17462,tonal,tonL,5,3,2,3,2,tonal,2,5,469,6,9,4,3,431,14,707113,4,2
triple,MALD1_sR,MALD1,15367,621,words19,1,15367_19,709,TRUE,19,triple,17732,triple,trIpL,5,2,3,3,2,triple,2,6,509,7,14,9,479,3554,487,12479150,7,1
wing,MALD1_sR,MALD1,15367,353,words19,1,15367_19,650,TRUE,19,wing,19075,wing,wIG,18,15,3,8,10,wing,1,3,479,5,90,40,1032,8370,2064,17354423,4,1
any,MALD1_sR,MALD1,15373,535,words23,1,15373_23,909,TRUE,23,any,840,any,Eni,9,4,5,5,4,any,2,3,459,4,105,29,56068,219278,61618,710755610,4,1
bloater,MALD1_sR,MALD1,15373,123,words23,5,15373_23,1083,TRUE,23,bloater,1935,bloater,blotX,2,1,1,1,1,bloater,2,5,668,7,11,3,2,1,0,11706,5,2
branch,MALD1_sR,MALD1,15373,703,words23,1,15373_23,708,TRUE,23,branch,2140,branch,br@nC,5,3,2,3,2,branch,1,5,529,7,18,9,514,7650,982,36712567,6,1
butter,MALD1_sR,MALD1,15373,515,words23,1,15373_23,705,TRUE,23,butter,2377,butter,b^tX,13,10,3,9,4,butter,2,4,318,7,52,26,1042,10850,766,9727886,5,2
cold,MALD1_sR,MALD1,15373,91,words23,1,15373_23,772,TRUE,23,cold,3432,cold,kold,15,11,4,10,5,cold,1,4,408,5,76,29,6638,33636,4763,40844411,5,1
creole,MALD1_sR,MALD1,15373,752,words23,1,15373_23,1103,FALSE,23,creole,4169,creole,kriol,3,2,1,2,1,creole,2,5,491,7,6,2,55,681,56,2277595,6,
cutter,MALD1_sR,MALD1,15373,153,words23,3,15373_23,1033,TRUE,23,cutter,4359,cutter,k^tX,12,9,3,9,3,cutter,2,4,350,7,51,19,239,1975,122,4273722,5,2
dumb,MALD1_sR,MALD1,15373,714,words23,4,15373_23,916,TRUE,23,dumb,5347,dumb,d^m,29,26,3,18,11,dumb,1,3,589,5,94,8,2395,2940,629,5413109,4,1
eve,MALD1_sR,MALD1,15373,186,words23,3,15373_23,969,TRUE,23,eve,5918,eve,iv,15,6,9,7,8,eve,1,2,515,4,53,23,1437,5435,952,13243304,3,1
fable,MALD1_sR,MALD1,15373,675,words23,1,15373_23,1028,TRUE,23,fable,6143,fable,febL,11,10,1,9,2,fable,2,5,484,6,31,15,20,397,34,1678751,6,1
flurry,MALD1_sR,MALD1,15373,10,words23,1,15373_23,893,TRUE,23,flurry,6594,flurry,flRi,3,1,2,1,2,flurry,2,4,507,6,21,6,24,909,119,610263,5,1
gibbon,MALD1_sR,MALD1,15373,739,words23,2,15373_23,1517,TRUE,23,gibbon,7150,gibbon,gIb|n,2,1,1,1,1,gibbon,2,5,363,7,22,4,12,121,20,481964,6,1
heap,MALD1_sR,MALD1,15373,609,words23,3,15373_23,990,TRUE,23,heap,7726,heap,hip,22,21,1,16,6,heap,1,3,351,5,69,16,249,1373,89,2806006,4,1
ideal,MALD1_sR,MALD1,15373,744,words23,1,15373_23,874,TRUE,23,ideal,8232,ideal,Ydil,3,1,2,1,2,ideal,2,4,503,6,17,4,374,8795,598,26049328,5,1
inspect,MALD1_sR,MALD1,15373,360,words23,1,15373_23,1058,TRUE,23,inspect,8916,inspect,InspEkt,2,1,1,1,1,inspect,2,7,538,8,4,2,130,1217,171,3286565,8,1
intern,MALD1_sR,MALD1,15373,365,words23,1,15373_23,871,TRUE,23,intern,9041,intern,IntRn,5,1,4,1,4,intern,2,5,488,7,8,2,232,981,113,3655396,6,1
jaw,MALD1_sR,MALD1,15373,226,words23,3,15373_23,859,TRUE,23,jaw,9300,jaw,Jc,15,14,1,11,4,jaw,1,2,399,4,59,28,364,3227,239,2798439,3,1
keep,MALD1_sR,MALD1,15373,25,words23,1,15373_23,686,TRUE,23,keep,9457,keep,kip,21,19,2,18,3,keep,1,3,335,5,109,19,35846,85894,21749,119614141,4,1
latin,MALD1_sR,MALD1,15373,319,words23,6,15373_23,803,TRUE,23,latin,9695,Latin,l@tN,8,6,2,7,1,latin,2,5,357,6,57,14,561,9750,921,36551294,6,
link,MALD1_sR,MALD1,15373,717,words23,1,15373_23,708,TRUE,23,link,9967,link,lIGk,17,10,7,14,3,link,1,4,330,5,58,41,609,9673,1333,240412757,5,1
mirth,MALD1_sR,MALD1,15373,367,words23,1,15373_23,894,TRUE,23,mirth,10898,mirth,mRT,13,11,2,10,3,mirth,1,3,484,5,55,10,11,211,12,387672,4,1
okay,MALD1_sR,MALD1,15373,149,words23,2,15373_23,805,TRUE,23,okay,11902,okay,oke,6,3,3,3,3,okay,2,3,405,5,41,10,102320,24970,10346,15370861,4,1
plaque,MALD1_sR,MALD1,15373,227,words23,4,15373_23,794,TRUE,23,plaque,13106,plaque,pl@k,12,9,3,6,6,plaque,1,4,375,7,35,3,106,1211,82,3850588,5,1
rank,MALD1_sR,MALD1,15373,661,words23,1,15373_23,739,TRUE,23,rank,14222,rank,r@Gk,20,10,10,16,4,rank,1,4,373,5,57,36,433,5078,457,36409068,5,1
rib,MALD1_sR,MALD1,15373,391,words23,1,15373_23,775,TRUE,23,rib,14796,rib,rIb,19,18,1,8,11,rib,1,3,343,4,70,28,301,1322,121,2745230,4,1
roof,MALD1_sR,MALD1,15373,384,words23,2,15373_23,840,TRUE,23,roof,14909,roof,ruf,13,11,2,5,8,roof,1,3,389,5,80,14,1818,8727,1142,14811067,4,1
rot,MALD1_sR,MALD1,15373,257,words23,2,15373_23,1068,TRUE,23,rot,14928,rot,rat,29,26,3,25,4,rot,1,3,405,4,122,50,394,1021,81,2043647,4,1
scum,MALD1_sR,MALD1,15373,504,words23,2,15373_23,1040,TRUE,23,scum,15308,scum,sk^m,9,6,3,5,4,scum,1,4,574,5,22,10,505,399,60,961366,5,1
sharp,MALD1_sR,MALD1,15373,361,words23,2,15373_23,992,TRUE,23,sharp,15534,sharp,Sarp,5,4,1,2,3,sharp,1,4,466,6,38,17,1213,11487,987,24906789,5,1
slush,MALD1_sR,MALD1,15373,354,words23,2,15373_23,995,TRUE,23,slush,15845,slush,sl^S,10,9,1,4,6,slush,1,4,569,6,16,8,28,319,39,389608,5,1
solely,MALD1_sR,MALD1,15373,394,words23,2,15373_23,1372,TRUE,23,solely,15957,solely,soli,11,10,1,7,4,solely,3,5,514,5,8,4,89,3477,301,10091700,4,2
stern,MALD1_sR,MALD1,15373,93,words23,3,15373_23,1000,TRUE,23,stern,16352,stern,stRn,10,5,5,4,6,stern,1,4,507,6,29,11,327,3975,1003,4643904,5,1
stroll,MALD1_sR,MALD1,15373,61,words23,1,15373_23,1046,TRUE,23,stroll,16494,stroll,strol,6,4,2,2,4,stroll,1,5,576,7,21,8,211,1337,66,1693118,6,1
taps,MALD1_sR,MALD1,15373,222,words23,2,15373_23,878,TRUE,23,taps,16987,taps,t@ps,7,4,3,5,2,taps,1,4,446,5,42,29,130,994,111,2690265,5,2
trifle,MALD1_sR,MALD1,15373,303,words23,9,15373_23,977,TRUE,23,trifle,17714,trifle,trYfL,4,2,2,2,2,trifle,2,6,475,7,6,4,107,299,12,354770,7,1
vinyl,MALD1_sR,MALD1,15373,317,words23,4,15373_23,863,TRUE,23,vinyl,18576,vinyl,vYnL,7,5,2,3,4,vinyl,2,5,423,5,12,1,63,1072,65,17011205,5,1
wrench,MALD1_sR,MALD1,15373,336,words23,1,15373_23,728,FALSE,23,wrench,19197,wrench,rEnC,10,5,5,6,4,wrench,1,4,400,7,32,5,202,678,54,2044734,5,1
ash,MALD1_sR,MALD1,15374,294,words2,6,15374_2,855,TRUE,2,ash,1111,ash,@S,17,6,11,10,7,ash,1,2,439,4,59,33,469,3155,250,8948202,3,1
blotch,MALD1_sR,MALD1,15374,443,words2,3,15374_2,1008,TRUE,2,blotch,1950,blotch,blaC,5,4,1,1,4,blotch,1,5,438,7,5,5,10,51,1,89691,6,1
boner,MALD1_sR,MALD1,15374,249,words2,2,15374_2,745,TRUE,2,boner,2039,boner,bonX,4,3,1,2,2,boner,2,4,285,5,71,34,119,37,2,302012,5,2
buffer,MALD1_sR,MALD1,15374,456,words2,1,15374_2,952,TRUE,2,buffer,2281,buffer,b^fX,4,3,1,2,2,buffer,2,4,397,7,29,10,85,1218,94,15904074,5,1
built,MALD1_sR,MALD1,15374,289,words2,1,15374_2,819,TRUE,2,built,2290,built,bIlt,18,15,3,10,8,built,1,4,309,5,49,6,2099,28910,3840,61502894,5,1
cab,MALD1_sR,MALD1,15374,683,words2,2,15374_2,766,TRUE,2,cab,2392,cab,k@b,22,19,3,11,11,cab,1,3,349,4,81,46,1826,3485,395,9280172,4,1
cam,MALD1_sR,MALD1,15374,387,words2,2,15374_2,956,FALSE,2,cam,2489,cam,k@m,27,22,5,15,12,cam,1,3,376,4,118,51,193,1254,178,24003561,4,1
choke,MALD1_sR,MALD1,15374,484,words2,2,15374_2,727,TRUE,2,choke,3100,choke,Cok,17,16,1,15,2,choke,1,3,410,6,60,11,330,1095,176,1450199,4,1
cop,MALD1_sR,MALD1,15374,606,words2,1,15374_2,982,TRUE,2,cop,3928,cop,kap,30,24,6,18,12,cop,1,3,312,4,129,50,4393,5614,1152,5586148,4,1
copper,MALD1_sR,MALD1,15374,277,words2,1,15374_2,1547,TRUE,2,copper,3934,copper,kapX,9,8,1,3,6,copper,2,4,469,7,69,22,336,3384,130,14543941,5,1
deal,MALD1_sR,MALD1,15374,619,words2,1,15374_2,1048,TRUE,2,deal,4480,deal,dil,29,24,5,22,7,deal,1,3,439,5,159,37,13330,49762,18165,63831872,4,1
duck,MALD1_sR,MALD1,15374,52,words2,2,15374_2,612,TRUE,2,duck,5327,duck,d^k,25,22,3,13,12,duck,1,3,445,5,98,29,1263,3639,615,8287612,4,1
eaten,MALD1_sR,MALD1,15374,366,words2,3,15374_2,888,TRUE,2,eaten,5428,eaten,itN,3,1,2,2,1,eaten,2,4,469,5,54,7,927,3526,325,3412832,5,1
edge,MALD1_sR,MALD1,15374,584,words2,1,15374_2,958,TRUE,2,edge,5461,edge,EJ,15,10,5,7,8,edge,1,2,341,5,64,17,1199,20699,1865,41874916,3,1
gall,MALD1_sR,MALD1,15374,237,words2,1,15374_2,1114,TRUE,2,gall,6949,gall,gcl,24,23,1,18,6,gall,1,3,389,5,104,40,101,606,69,1441994,4,1
gilt,MALD1_sR,MALD1,15374,566,words2,1,15374_2,770,TRUE,2,gilt,7162,gilt,gIlt,11,10,1,8,3,gilt,1,4,370,5,37,20,9,351,5,1157227,5,1
jiffy,MALD1_sR,MALD1,15374,653,words2,1,15374_2,1428,TRUE,2,jiffy,9329,jiffy,JIfi,2,1,1,1,1,jiffy,2,4,359,5,18,3,80,89,9,475865,5,1
lug,MALD1_sR,MALD1,15374,78,words2,3,15374_2,1422,TRUE,2,lug,10168,lug,l^g,22,20,2,16,6,lug,1,3,347,4,50,33,132,306,18,2224803,4,1
my,MALD1_sR,MALD1,15374,383,words2,3,15374_2,697,TRUE,2,my,11327,my,mY,32,24,8,17,15,my,1,2,364,3,129,39,344899,577200,129097,1059793441,3,1
plan,MALD1_sR,MALD1,15374,472,words2,5,15374_2,862,TRUE,2,plan,13096,plan,pl@n,8,6,2,2,6,plan,1,4,458,5,39,24,7432,52927,15142,160755405,5,1
press,MALD1_sR,MALD1,15374,691,words2,1,15374_2,1649,TRUE,2,press,13592,press,prEs,6,5,1,4,2,press,1,4,499,6,36,21,3070,41358,10261,179658541,5,1
prime,MALD1_sR,MALD1,15374,721,words2,2,15374_2,617,TRUE,2,prime,13636,prime,prYm,11,8,3,3,8,prime,1,4,422,6,31,15,933,15300,5155,38313992,5,1
quit,MALD1_sR,MALD1,15374,523,words2,8,15374_2,701,TRUE,2,quit,14116,quit,kwIt,17,12,5,5,12,quit,1,4,313,5,34,16,4595,6975,1627,10325898,5,1
rid,MALD1_sR,MALD1,15374,466,words2,1,15374_2,857,FALSE,2,rid,14807,rid,rId,29,25,4,16,13,rid,1,3,331,4,98,36,3052,6152,2415,7893552,4,1
rider,MALD1_sR,MALD1,15374,112,words2,1,15374_2,991,TRUE,2,rider,14812,rider,rYdX,6,4,2,3,3,rider,2,4,323,6,68,28,393,2159,137,8989575,5,2
right,MALD1_sR,MALD1,15374,725,words2,3,15374_2,822,TRUE,2,right,14825,right,rYt,35,28,7,23,12,right,1,3,333,6,105,18,204428,292287,154266,273635706,4,1
rover,MALD1_sR,MALD1,15374,638,words2,3,15374_2,713,TRUE,2,rover,14958,rover,rovX,6,3,3,3,3,rover,2,4,400,6,38,28,170,1454,187,8538281,5,2
sheathe,MALD1_sR,MALD1,15374,8,words2,2,15374_2,1365,TRUE,2,sheathe,15546,sheathe,SiD,11,9,2,3,8,sheathe,1,3,402,8,37,2,5,4,0,14350,4,1
shiny,MALD1_sR,MALD1,15374,574,words2,1,15374_2,774,TRUE,2,shiny,15579,shiny,SYni,3,2,1,1,2,shiny,2,4,509,6,23,7,398,3014,184,3192674,4,1
stain,MALD1_sR,MALD1,15374,704,words2,4,15374_2,1054,TRUE,2,stain,16257,stain,sten,17,14,3,5,12,stain,1,4,539,6,49,19,316,1430,144,3512824,5,1
tare,MALD1_sR,MALD1,15374,755,words2,1,15374_2,1723,TRUE,2,tare,16992,tare,tEr,23,20,3,20,3,tare,1,3,305,4,52,37,4,112,0,232510,4,1
tatter,MALD1_sR,MALD1,15374,280,words2,4,15374_2,2053,TRUE,2,tatter,17009,tatter,t@tX,15,13,2,11,4,tatter,2,4,409,7,35,16,0,13,2,20702,5,1
timbre,MALD1_sR,MALD1,15374,308,words2,1,15374_2,607,TRUE,2,timbre,17365,timbre,t@mbX,4,3,1,3,1,timbre,2,5,428,6,7,1,7,270,6,284652,6,1
tip,MALD1_sR,MALD1,15374,144,words2,2,15374_2,841,TRUE,2,tip,17394,tip,tIp,25,23,2,18,7,tip,1,3,222,4,72,31,1409,9125,1193,28816642,4,1
vain,MALD1_sR,MALD1,15374,252,words2,5,15374_2,702,TRUE,2,vain,18279,vain,ven,19,18,1,15,4,vain,1,3,375,5,102,26,332,1465,183,2406302,4,1
yank,MALD1_sR,MALD1,15374,473,words2,6,15374_2,742,TRUE,2,yank,19238,yank,y@Gk,12,9,3,10,2,yank,1,4,440,5,36,24,240,578,44,646395,5,1
brake,MALD1_sR,MALD1,15374,720,words25,1,15374_25,951,TRUE,25,brake,2137,brake,brek,13,10,3,3,10,brake,1,4,392,6,44,16,305,1737,118,9322146,5,1
capsule,MALD1_sR,MALD1,15374,489,words25,1,15374_25,720,TRUE,25,capsule,2602,capsule,k@psL,3,1,2,2,1,capsule,2,6,495,8,13,1,130,1201,191,3315216,7,1
chafe,MALD1_sR,MALD1,15374,214,words25,1,15374_25,657,TRUE,25,chafe,2894,chafe,Cef,7,6,1,4,3,chafe,1,3,469,6,17,10,13,130,6,123596,4,1
ease,MALD1_sR,MALD1,15374,28,words25,2,15374_25,719,TRUE,25,ease,5420,ease,iz,19,8,11,10,9,ease,1,2,457,5,173,36,974,6877,741,13977690,3,1
fence,MALD1_sR,MALD1,15374,344,words25,1,15374_25,895,TRUE,25,fence,6327,fence,fEns,10,8,2,7,3,fence,1,4,489,6,30,8,819,5998,814,6796605,5,1
garden,MALD1_sR,MALD1,15374,595,words25,2,15374_25,672,TRUE,25,garden,7000,garden,gardN,2,1,1,1,1,garden,2,6,452,7,34,19,1354,19403,1092,119016327,7,1
hat,MALD1_sR,MALD1,15374,547,words25,1,15374_25,516,TRUE,25,hat,7687,hat,h@t,34,31,3,21,13,hat,1,3,404,4,111,60,3273,8649,1107,24396117,4,1
hop,MALD1_sR,MALD1,15374,422,words25,1,15374_25,765,TRUE,25,hop,8013,hop,hap,20,19,1,15,5,hop,1,3,327,4,105,44,977,3542,582,22935809,4,1
jar,MALD1_sR,MALD1,15374,210,words25,5,15374_25,648,TRUE,25,jar,9291,jar,Jar,16,14,2,11,5,jar,1,3,409,4,84,36,424,2498,171,6551592,4,1
lateral,MALD1_sR,MALD1,15374,54,words25,1,15374_25,714,TRUE,25,lateral,9690,lateral,l@tXL,2,1,1,1,1,lateral,3,6,577,6,4,1,78,1714,32,4547513,5,1
maize,MALD1_sR,MALD1,15374,476,words25,1,15374_25,733,TRUE,25,maize,10296,maize,mez,19,16,3,9,10,maize,1,3,359,6,168,7,9,789,21,2224269,4,2
meant,MALD1_sR,MALD1,15374,577,words25,2,15374_25,687,FALSE,25,meant,10603,meant,mEnt,18,15,3,12,6,meant,1,4,320,6,57,6,5316,22296,3264,17833533,5,1
parley,MALD1_sR,MALD1,15374,758,words25,2,15374_25,760,TRUE,25,parley,12440,parley,parli,6,4,2,1,5,parley,2,5,446,6,42,22,21,82,5,130409,6,1
porter,MALD1_sR,MALD1,15374,111,words25,1,15374_25,758,TRUE,25,porter,13339,porter,portX,4,3,1,2,2,porter,2,5,411,7,26,19,795,2886,454,7153875,6,1
pure,MALD1_sR,MALD1,15374,283,words25,1,15374_25,668,TRUE,25,pure,13973,pure,pyUr,2,1,1,1,1,pure,1,4,307,5,8,28,1271,8072,962,22842684,5,1
quake,MALD1_sR,MALD1,15374,549,words25,1,15374_25,621,TRUE,25,quake,14057,quake,kwek,9,6,3,3,6,quake,1,4,422,6,25,7,82,1466,323,4544751,5,1
rigor,MALD1_sR,MALD1,15374,269,words25,2,15374_25,708,TRUE,25,rigor,14832,rigor,rIgX,7,5,2,4,3,rigor,2,4,430,6,41,6,44,682,33,519381,5,1
rosy,MALD1_sR,MALD1,15374,241,words25,2,15374_25,718,TRUE,25,rosy,14927,rosy,rozi,7,4,3,5,2,rosy,2,4,497,4,55,19,169,912,128,836269,5,1
rubble,MALD1_sR,MALD1,15374,729,words25,1,15374_25,820,TRUE,25,rubble,14966,rubble,r^bL,13,10,3,7,6,rubble,2,5,421,5,40,6,89,1528,470,890671,5,1
scant,MALD1_sR,MALD1,15374,172,words25,2,15374_25,1329,TRUE,25,scant,15207,scant,sk@nt,3,1,2,2,1,scant,1,5,477,6,14,10,12,1108,47,546008,6,1
seek,MALD1_sR,MALD1,15374,627,words25,1,15374_25,727,TRUE,25,seek,15364,seek,sik,31,25,6,19,12,seek,1,3,515,5,140,26,934,12361,1441,24141213,4,1
shoe,MALD1_sR,MALD1,15374,535,words25,3,15374_25,837,TRUE,25,shoe,15593,shoe,Su,25,22,3,19,6,shoe,1,2,470,5,157,19,1550,4357,799,16344743,3,1
snuggle,MALD1_sR,MALD1,15374,704,words25,4,15374_25,738,TRUE,25,snuggle,15915,snuggle,sn^gL,3,2,1,1,2,snuggle,2,6,511,8,3,2,66,170,14,389398,7,1
spade,MALD1_sR,MALD1,15374,145,words25,1,15374_25,775,TRUE,25,spade,16042,spade,sped,9,7,2,3,6,spade,1,4,496,6,24,12,118,495,49,1569700,5,1
stone,MALD1_sR,MALD1,15374,538,words25,2,15374_25,2658,TRUE,25,stone,16412,stone,ston,14,11,3,4,10,stone,1,4,571,6,43,21,2072,18395,2160,42499580,5,1
store,MALD1_sR,MALD1,15374,674,words25,1,15374_25,2386,TRUE,25,store,16420,store,stor,18,12,6,6,12,store,1,4,473,6,55,26,4178,25616,4153,291316410,5,1
storm,MALD1_sR,MALD1,15374,515,words25,1,15374_25,760,TRUE,25,storm,16424,storm,storm,4,3,1,1,3,storm,1,5,505,6,28,10,1574,13015,4403,22249642,6,1
suffer,MALD1_sR,MALD1,15374,430,words25,2,15374_25,757,TRUE,25,suffer,16636,suffer,s^fX,7,6,1,3,4,suffer,2,4,501,7,44,13,1148,6609,1232,8734050,5,1
swab,MALD1_sR,MALD1,15374,450,words25,1,15374_25,783,TRUE,25,swab,16779,swab,swab,10,8,2,3,7,swab,1,4,581,5,21,13,121,315,54,420847,5,1
their,MALD1_sR,MALD1,15374,461,words25,1,15374_25,585,TRUE,25,their,17204,their,DEr,17,15,2,14,3,their,1,3,316,6,82,6,33413,686111,118894,782857871,4,1
then,MALD1_sR,MALD1,15374,711,words25,4,15374_25,805,FALSE,25,then,17211,then,DEn,17,16,1,15,2,then,1,3,375,5,69,30,75966,335547,81069,369942506,4,1
tried,MALD1_sR,MALD1,15374,316,words25,1,15374_25,783,TRUE,25,tried,17712,tried,trYd,16,11,5,5,11,tried,1,4,413,5,30,13,9529,42151,10198,34201786,5,2
twist,MALD1_sR,MALD1,15374,623,words25,1,15374_25,675,TRUE,25,twist,17896,twist,twIst,3,2,1,2,1,twist,1,5,529,6,9,5,643,4017,659,7244706,6,1
us,MALD1_sR,MALD1,15374,649,words25,2,15374_25,967,TRUE,25,us,18230,us,^s,10,5,5,9,1,us,1,2,394,3,66,52,86478,256306,108542,1229112622,3,1
waive,MALD1_sR,MALD1,15374,425,words25,1,15374_25,839,TRUE,25,waive,18764,waive,wev,21,18,3,11,10,waive,1,3,436,6,60,7,88,338,88,1789027,4,1
woodman,MALD1_sR,MALD1,15374,263,words25,1,15374_25,667,FALSE,25,woodman,19147,woodman,wUdmxn,3,1,2,2,1,woodman,2,6,419,8,20,4,18,80,1,481919,7,2
amend,MALD1_sR,MALD1,15382,768,words1,1,15382_1,1117,TRUE,1,amend,618,amend,xmEnd,8,5,3,7,1,amend,2,5,675,6,10,8,38,597,114,7806844,6,1
ashore,MALD1_sR,MALD1,15382,500,words1,1,15382_1,1019,TRUE,1,ashore,1115,ashore,xSor,3,2,1,2,1,ashore,2,4,498,5,8,6,317,967,202,876754,3,1
calf,MALD1_sR,MALD1,15382,571,words1,2,15382_1,753,FALSE,1,calf,2453,calf,k@f,19,17,2,8,11,calf,1,3,383,5,75,17,151,1562,82,2757974,4,1
calve,MALD1_sR,MALD1,15382,586,words1,4,15382_1,803,FALSE,1,calve,2483,calve,k@v,17,15,2,5,12,calve,1,3,307,6,46,12,0,33,2,62571,4,1
cap,MALD1_sR,MALD1,15382,462,words1,3,15382_1,883,TRUE,1,cap,2571,cap,k@p,30,28,2,19,11,cap,1,3,409,4,117,47,956,8620,1254,25442468,4,1
cast,MALD1_sR,MALD1,15382,319,words1,1,15382_1,863,TRUE,1,cast,2716,cast,k@st,13,11,2,8,5,cast,1,4,522,5,68,36,1180,13176,2191,33399422,5,1
chunk,MALD1_sR,MALD1,15382,565,words1,2,15382_1,735,TRUE,1,chunk,3156,chunk,C^Gk,10,9,1,9,1,chunk,1,4,415,6,28,13,211,1787,262,2371231,5,1
clout,MALD1_sR,MALD1,15382,648,words1,2,15382_1,1395,TRUE,1,clout,3326,clout,klWt,7,6,1,3,4,clout,1,4,609,6,25,6,48,1266,275,639706,5,1
conquer,MALD1_sR,MALD1,15382,27,words1,1,15382_1,1007,TRUE,1,conquer,3751,conquer,kaGkX,3,2,1,1,2,conquer,2,5,527,8,13,1,254,970,120,2280435,6,1
dean,MALD1_sR,MALD1,15382,189,words1,1,15382_1,990,TRUE,1,dean,4484,dean,din,24,23,1,19,5,dean,1,3,398,5,151,38,1974,7446,2313,23588713,4,1
fade,MALD1_sR,MALD1,15382,564,words1,1,15382_1,866,TRUE,1,fade,6166,fade,fed,22,19,3,12,10,fade,1,3,384,5,80,33,286,2246,207,3618325,4,1
fresh,MALD1_sR,MALD1,15382,431,words1,1,15382_1,686,TRUE,1,fresh,6798,fresh,frES,4,3,1,3,1,fresh,1,4,499,6,27,8,2780,25161,2862,38789267,5,1
hook,MALD1_sR,MALD1,15382,690,words1,4,15382_1,639,TRUE,1,hook,8004,hook,hUk,16,15,1,13,3,hook,1,3,309,5,57,33,1938,5103,740,11359942,4,1
jig,MALD1_sR,MALD1,15382,343,words1,2,15382_1,812,FALSE,1,jig,9330,jig,JIg,17,15,2,10,7,jig,1,3,375,4,47,24,87,537,19,1393707,4,1
join,MALD1_sR,MALD1,15382,84,words1,2,15382_1,661,TRUE,1,join,9358,join,JOn,8,5,3,6,2,join,1,3,379,5,53,17,4255,15873,5094,174303626,4,1
lance,MALD1_sR,MALD1,15382,141,words1,1,15382_1,1317,TRUE,1,lance,9629,lance,l@ns,10,7,3,5,5,lance,1,4,485,6,41,16,554,2948,617,5509957,5,1
leery,MALD1_sR,MALD1,15382,579,words1,1,15382_1,1118,TRUE,1,leery,9769,leery,lIri,10,7,3,7,3,leery,2,4,439,5,86,9,162,311,50,169484,5,1
leopard,MALD1_sR,MALD1,15382,421,words1,3,15382_1,813,TRUE,1,leopard,9823,leopard,lEpXd,2,1,1,1,1,leopard,2,5,396,8,24,5,276,766,99,2153753,6,1
maggot,MALD1_sR,MALD1,15382,35,words1,1,15382_1,871,TRUE,1,maggot,10254,maggot,m@g|t,3,2,1,2,1,maggot,2,5,443,7,13,4,81,433,15,296057,6,1
mug,MALD1_sR,MALD1,15382,581,words1,3,15382_1,767,TRUE,1,mug,11235,mug,m^g,21,19,2,11,10,mug,1,3,425,4,61,23,349,1822,153,5114862,4,1
name,MALD1_sR,MALD1,15382,651,words1,5,15382_1,874,TRUE,1,name,11365,name,nem,16,14,2,12,4,name,1,3,483,5,57,20,32735,67418,14891,464548432,4,1
oak,MALD1_sR,MALD1,15382,591,words1,1,15382_1,646,TRUE,1,oak,11771,oak,ok,25,12,13,13,12,oak,1,2,300,4,111,27,286,5688,228,20581030,3,1
paint,MALD1_sR,MALD1,15382,764,words1,3,15382_1,678,TRUE,1,paint,12270,paint,pent,12,9,3,9,3,paint,1,4,353,6,38,13,1877,11877,1200,21928120,5,1
probe,MALD1_sR,MALD1,15382,321,words1,3,15382_1,908,TRUE,1,probe,13677,probe,prob,5,3,2,2,3,probe,1,4,423,6,17,11,225,3100,360,9646581,5,1
rear,MALD1_sR,MALD1,15382,232,words1,1,15382_1,673,TRUE,1,rear,14315,rear,rIr,32,29,3,21,11,rear,1,3,489,5,101,35,634,7406,459,22323354,4,1
red,MALD1_sR,MALD1,15382,226,words1,1,15382_1,666,TRUE,1,red,14408,red,rEd,29,21,8,21,8,red,1,3,358,4,110,50,7551,53727,5891,140812404,4,1
sang,MALD1_sR,MALD1,15382,691,words1,5,15382_1,904,TRUE,1,sang,15125,sang,s@G,19,17,2,11,8,sang,1,3,509,5,61,44,419,3658,644,3669497,4,1
sheet,MALD1_sR,MALD1,15382,304,words1,1,15382_1,796,TRUE,1,sheet,15554,sheet,Sit,23,21,2,16,7,sheet,1,3,465,6,90,9,592,7948,491,44296091,4,1
shock,MALD1_sR,MALD1,15382,589,words1,2,15382_1,1332,TRUE,1,shock,15590,shock,Sak,21,20,1,17,4,shock,1,3,427,6,130,16,1468,9056,1919,14853008,4,1
shut,MALD1_sR,MALD1,15382,42,words1,1,15382_1,892,TRUE,1,shut,15642,shut,S^t,21,18,3,15,6,shut,1,3,352,5,69,18,13455,14304,2706,11691029,4,1
ski,MALD1_sR,MALD1,15382,762,words1,1,15382_1,1108,TRUE,1,ski,15750,ski,ski,9,3,6,4,5,ski,1,3,593,4,76,24,413,8483,362,28672058,4,1
sneak,MALD1_sR,MALD1,15382,681,words1,1,15382_1,830,TRUE,1,sneak,15890,sneak,snik,7,5,2,3,4,sneak,1,4,475,6,23,5,861,1882,424,2281170,5,1
steeple,MALD1_sR,MALD1,15382,653,words1,7,15382_1,857,TRUE,1,steeple,16325,steeple,stipL,4,2,2,3,1,steeple,2,6,595,8,14,5,21,188,8,376906,7,1
street,MALD1_sR,MALD1,15382,478,words1,3,15382_1,759,TRUE,1,street,16460,street,strit,6,5,1,1,5,street,1,5,412,7,23,6,7557,56313,12122,149137640,6,1
table,MALD1_sR,MALD1,15382,312,words1,2,15382_1,542,TRUE,1,table,16902,table,tebL,9,7,2,8,1,table,2,5,326,6,25,16,5387,73702,4844,165344305,6,1
titan,MALD1_sR,MALD1,15382,628,words1,4,15382_1,914,TRUE,1,titan,17405,titan,tYtN,5,4,1,2,3,titan,2,5,351,6,30,8,74,733,56,3985761,6,1
vend,MALD1_sR,MALD1,15382,247,words1,1,15382_1,834,FALSE,1,vend,18394,vend,vEnd,14,11,3,10,4,vend,1,4,579,5,27,14,0,12,0,188697,5,1
woke,MALD1_sR,MALD1,15382,187,words1,6,15382_1,727,TRUE,1,woke,19124,woke,wok,18,16,2,14,4,woke,1,3,369,5,72,19,1344,4223,733,2630931,4,1
bark,MALD1_sR,MALD1,15383,214,words16,1,15383_16,881,TRUE,16,bark,1545,bark,bark,15,11,4,7,8,bark,1,4,334,5,78,37,280,2199,149,3560716,5,1
been,MALD1_sR,MALD1,15383,742,words16,1,15383_16,816,TRUE,16,been,1678,been,bIn,27,25,2,19,8,been,1,3,529,5,146,32,88573,497421,140390,575029687,4,1
braille,MALD1_sR,MALD1,15383,703,words16,2,15383_16,707,TRUE,16,braille,2134,braille,brel,14,11,3,5,9,braille,1,4,325,8,45,1,28,2674,32,1741143,5,1
cancel,MALD1_sR,MALD1,15383,724,words16,2,15383_16,835,TRUE,16,cancel,2520,cancel,k@nsL,9,8,1,6,3,cancel,2,6,536,7,31,5,933,1442,348,21985949,7,1
clash,MALD1_sR,MALD1,15383,291,words16,1,15383_16,756,TRUE,16,clash,3249,clash,kl@S,14,12,2,6,8,clash,1,4,445,6,33,7,68,1656,267,3531401,5,1
claw,MALD1_sR,MALD1,15383,485,words16,1,15383_16,837,TRUE,16,claw,3264,claw,klc,9,5,4,3,6,claw,1,3,388,5,37,16,223,885,43,1889661,4,1
core,MALD1_sR,MALD1,15383,288,words16,1,15383_16,754,TRUE,16,core,3958,core,kor,36,26,10,20,16,core,1,3,409,5,166,53,501,13514,1639,51254699,4,1
dairy,MALD1_sR,MALD1,15383,715,words16,4,15383_16,1146,FALSE,16,dairy,4406,dairy,dEri,11,9,2,10,1,dairy,2,4,416,6,125,7,142,2607,190,8781961,5,1
drip,MALD1_sR,MALD1,15383,786,words16,1,15383_16,668,TRUE,16,drip,5282,drip,drIp,9,7,2,4,5,drip,1,4,337,5,20,8,261,1119,127,1856411,5,1
elect,MALD1_sR,MALD1,15383,399,words16,1,15383_16,930,TRUE,16,elect,5512,elect,xlEkt,4,1,3,3,1,elect,2,5,597,6,9,4,72,4043,2360,5748899,6,1
error,MALD1_sR,MALD1,15383,723,words16,1,15383_16,770,TRUE,16,error,5825,error,ErX,5,3,2,2,3,error,2,3,461,6,63,3,473,6675,787,89407443,4,1
freak,MALD1_sR,MALD1,15383,651,words16,1,15383_16,941,TRUE,16,freak,6780,freak,frik,7,5,2,4,3,freak,1,4,526,6,51,10,1874,1579,277,3921675,5,1
get,MALD1_sR,MALD1,15383,85,words16,7,15383_16,824,TRUE,16,get,7134,get,gEt,21,19,2,18,3,get,1,3,430,4,74,29,233772,323633,129301,605996761,4,1
gloss,MALD1_sR,MALD1,15383,717,words16,6,15383_16,1021,TRUE,16,gloss,7229,gloss,glcs,3,2,1,2,1,gloss,1,4,519,6,23,14,74,969,90,3430659,5,1
gold,MALD1_sR,MALD1,15383,142,words16,3,15383_16,725,TRUE,16,gold,7274,gold,gold,15,12,3,11,4,gold,1,4,486,5,48,30,4026,20940,2324,107505207,5,1
grief,MALD1_sR,MALD1,15383,356,words16,1,15383_16,912,TRUE,16,grief,7413,grief,grif,11,10,1,2,9,grief,1,4,509,5,41,11,552,4197,736,4552843,4,1
groan,MALD1_sR,MALD1,15383,124,words16,2,15383_16,1192,TRUE,16,groan,7435,groan,gron,15,13,2,5,10,groan,1,4,406,6,55,11,47,656,29,473578,5,1
heard,MALD1_sR,MALD1,15383,631,words16,2,15383_16,947,TRUE,16,heard,7728,heard,hRd,20,18,2,12,8,heard,1,3,425,5,77,17,19775,56385,19688,45439231,4,1
held,MALD1_sR,MALD1,15383,463,words16,2,15383_16,815,TRUE,16,held,7771,held,hEld,11,9,2,4,7,held,1,4,313,5,46,20,2165,45447,6584,76101626,5,1
hit,MALD1_sR,MALD1,15383,357,words16,2,15383_16,813,TRUE,16,hit,7932,hit,hIt,33,29,4,22,11,hit,1,3,403,4,88,38,14025,42110,11295,53180493,4,1
hut,MALD1_sR,MALD1,15383,143,words16,4,15383_16,890,TRUE,16,hut,8152,hut,h^t,27,26,1,17,10,hut,1,3,301,4,96,41,674,2019,105,3476174,4,1
lair,MALD1_sR,MALD1,15383,324,words16,1,15383_16,737,TRUE,16,lair,9610,lair,lEr,30,25,5,22,8,lair,1,3,427,5,140,25,123,358,9,1211294,4,1
launch,MALD1_sR,MALD1,15383,10,words16,1,15383_16,789,TRUE,16,launch,9706,launch,lcnC,5,4,1,4,1,launch,1,4,447,7,17,6,1018,6886,1563,23714910,5,1
learn,MALD1_sR,MALD1,15383,566,words16,4,15383_16,838,TRUE,16,learn,9751,learn,lRn,16,14,2,13,3,learn,1,3,409,6,92,12,6047,34036,6280,179431965,4,1
like,MALD1_sR,MALD1,15383,550,words16,2,15383_16,714,TRUE,16,like,9920,like,lYk,26,24,2,16,10,like,1,3,469,5,99,38,203947,505063,155727,520611399,4,1
party,MALD1_sR,MALD1,15383,746,words16,1,15383_16,842,TRUE,16,party,12487,party,parti,5,2,3,2,3,party,2,5,472,6,38,21,11890,59449,19532,144723933,6,2
peril,MALD1_sR,MALD1,15383,525,words16,2,15383_16,849,TRUE,16,peril,12737,peril,pErL,7,5,2,2,5,peril,2,5,330,6,67,6,98,1101,172,1258951,6,1
present,MALD1_sR,MALD1,15383,80,words16,2,15383_16,830,TRUE,16,present,13579,present,prEzNt,3,2,1,2,1,present,2,7,434,8,5,7,4562,38673,3757,99421445,8,2
reside,MALD1_sR,MALD1,15383,264,words16,1,15383_16,910,TRUE,16,reside,14658,reside,rIzYd,3,1,2,1,2,reside,2,5,582,7,6,8,56,1094,57,2799223,6,2
reverse,MALD1_sR,MALD1,15383,180,words16,1,15383_16,1055,TRUE,16,reverse,14751,reverse,rIvRs,3,2,1,1,2,reverse,2,5,555,8,11,9,560,5632,877,19036324,6,2
rumble,MALD1_sR,MALD1,15383,578,words16,1,15383_16,910,TRUE,16,rumble,14989,rumble,r^mbL,12,8,4,9,3,rumble,2,6,469,7,22,18,139,834,69,1877484,7,1
sick,MALD1_sR,MALD1,15383,575,words16,1,15383_16,824,TRUE,16,sick,15649,sick,sIk,29,23,6,18,11,sick,1,3,559,5,109,35,8437,12970,3564,15974902,4,1
slump,MALD1_sR,MALD1,15383,473,words16,1,15383_16,869,TRUE,16,slump,15841,slump,sl^mp,5,3,2,4,1,slump,1,5,377,6,16,12,61,1054,118,878659,6,1
tennis,MALD1_sR,MALD1,15383,539,words16,2,15383_16,1056,TRUE,16,tennis,17121,tennis,tEn|s,4,3,1,1,3,tennis,2,5,472,7,13,5,695,6047,896,26272328,6,1
tooth,MALD1_sR,MALD1,15383,753,words16,1,15383_16,699,TRUE,16,tooth,17480,tooth,tuT,14,10,4,5,9,tooth,1,3,429,6,47,9,692,2027,278,5551049,4,1
tract,MALD1_sR,MALD1,15383,450,words16,2,15383_16,832,TRUE,16,tract,17561,tract,tr@kt,5,1,4,3,2,tract,1,5,465,6,24,12,73,1741,69,5897046,6,1
vile,MALD1_sR,MALD1,15383,285,words16,2,15383_16,739,TRUE,16,vile,18552,vile,vYl,22,19,3,15,7,vile,1,3,499,5,79,30,226,496,100,930954,4,1
